row_id,subj_code,batch_num,bin,trial_number,word,key,rt
1,7000,1,1,1,freakish,6,6422
2,7000,1,1,2,peace,4,12874
3,7000,1,1,3,stalked,6,7535
4,7000,1,1,4,lactose,1,9145
5,7000,1,1,5,lowly,5,10774
6,7000,1,1,6,sulphur,1,7791
7,7000,1,1,7,invariant,3,11122
8,7000,1,1,8,responsible,3,7010
9,7000,1,1,9,reform,3,8231
10,7000,1,1,10,valley,5,4561
11,7000,1,1,11,whirr,7,3217
12,7000,1,1,12,empress,4,24299
13,7000,1,1,13,pant,5,6604
14,7000,1,1,14,excise,6,2881
15,7000,1,1,15,competence,3,4256
16,7000,1,1,16,grump,6,3948
17,7000,1,1,17,sympathetic,3,5406
18,7000,1,1,18,prune,5,2350
19,7000,1,1,19,theorize,2,7642
20,7000,1,1,20,colossal,5,8130
21,7000,1,1,21,qualified,2,6130
22,7000,1,1,22,phenomenal,5,8393
23,7000,1,1,23,adulterer,2,8162
24,7000,1,1,25,faulty,5,13813
25,7000,1,1,26,coverage,3,3291
26,7000,1,1,27,fixation,4,6738
27,7000,1,1,28,sight,3,9468
28,7000,1,1,29,allegiance,2,9604
29,7000,1,1,30,breakage,5,9978
30,7000,1,1,31,distrustful,3,3767
31,7000,1,1,32,yank,7,6145
32,7000,1,1,33,library,2,5750
33,7000,1,1,34,circumspect,4,8310
34,7000,1,1,35,aunt,1,8138
35,7000,1,1,36,observer,3,3733
36,7000,1,1,37,trade,3,4172
37,7000,1,1,38,measurement,4,12542
38,7000,1,1,39,constitute,3,2648
39,7000,1,1,40,drill,6,2242
40,7000,1,1,41,porch,5,2153
41,7000,1,1,42,jealous,3,3163
42,7000,1,1,43,solitaire,4,3975
43,7000,1,1,44,ruffle,7,3488
44,7000,1,1,45,here,3,7185
45,7000,1,1,46,tireless,2,5434
46,7000,1,1,47,nirvana,6,12508
47,7000,1,1,48,delightful,3,6723
48,7000,1,1,49,butler,2,4274
49,7000,1,1,50,uneventful,1,4001
50,7000,1,1,51,hydroplane,5,4971
51,7000,1,1,52,articulate,5,4309
52,7000,1,1,53,change,3,5133
53,7000,1,1,54,cubicle,5,7666
54,7000,1,1,55,bass,6,2668
55,7000,1,1,57,instruct,4,4986
56,7000,1,1,59,dialysis,4,16374
57,7000,1,1,60,stinky,6,3400
58,7000,1,1,61,gamble,5,1910
59,7000,1,1,62,handshake,4,6428
60,7000,1,1,63,goo-goo,7,5852
61,7000,1,1,64,honeycomb,3,6523
62,7000,1,1,65,deserving,3,3495
63,7000,1,1,66,smash,7,2295
64,7000,1,1,67,mammal,2,2530
65,7000,1,1,68,bloodbath,4,4365
66,7000,1,1,69,twister,7,4541
67,7000,1,1,70,earnest,5,2820
68,7000,1,1,71,misread,3,6856
69,7000,1,1,73,murky,6,3567
70,7000,1,1,74,momma,6,4856
71,7000,1,1,75,screenplay,2,4999
72,7001,1,3,1,harmonica,3,6334
73,7001,1,3,2,inconstant,1,3698
74,7001,1,3,3,festival,5,3560
75,7001,1,3,4,marsh,6,3318
76,7001,1,3,5,extravagant,6,4341
77,7001,1,3,6,tighten,4,4133
78,7001,1,3,7,frostbite,2,2753
79,7001,1,3,8,stressful,3,2685
80,7001,1,3,9,sincere,1,2310
81,7001,1,3,10,salamander,1,3159
82,7001,1,3,11,beanie,1,3410
83,7001,1,3,12,methodology,1,1982
84,7001,1,3,13,escort,1,1920
85,7001,1,3,14,nuclear,3,3175
86,7001,1,3,15,mobility,1,3242
87,7001,1,3,16,gigantic,5,2781
88,7001,1,3,17,approve,2,2438
89,7001,1,3,18,punt,5,3006
90,7001,1,3,19,combative,4,2320
91,7001,1,3,20,crimson,2,8123
92,7001,1,3,21,corset,1,2938
93,7001,1,3,22,playback,1,2327
94,7001,1,3,23,dolphin,1,1905
95,7001,1,3,24,sweater,1,1686
96,7001,1,3,25,choice,2,3535
97,7001,1,3,26,leader,1,2337
98,7001,1,3,27,racist,1,1499
99,7001,1,3,28,defensible,1,1571
100,7001,1,3,29,flow,6,2363
101,7001,1,3,30,boyish,3,3510
102,7001,1,3,31,disenfranchise,1,2489
103,7001,1,3,32,detergent,3,2536
104,7001,1,3,33,gull,1,3240
105,7001,1,3,34,congruity,1,1773
106,7001,1,3,35,muffler,4,2805
107,7001,1,3,36,tram,1,2258
108,7001,1,3,37,utility,1,1879
109,7001,1,3,39,hobble,6,4377
110,7001,1,3,40,woe,4,3709
111,7001,1,3,41,Sparks,3,2158
112,7001,1,3,42,babble,6,2707
113,7001,1,3,43,athletics,1,3522
114,7001,1,3,44,option,1,1309
115,7001,1,3,45,several,1,1023
116,7001,1,3,46,droplet,4,2421
117,7001,1,3,48,clove,4,3473
118,7001,1,3,49,century,3,2593
119,7001,1,3,52,rocker,6,4440
120,7001,1,3,53,intercom,1,2025
121,7001,1,3,54,tech,2,2994
122,7001,1,3,55,preoccupy,1,1921
123,7001,1,3,56,joystick,1,1146
124,7001,1,3,57,start,1,2399
125,7001,1,3,58,irate,5,2350
126,7001,1,3,59,replay,1,2091
127,7001,1,3,60,hurry,5,3324
128,7001,1,3,61,neediness,1,1925
129,7001,1,3,62,magnet,1,1040
130,7001,1,3,63,grid,1,1046
131,7001,1,3,64,unbecoming,1,1058
132,7001,1,3,65,wallop,7,3255
133,7001,1,3,66,toothpaste,1,1864
134,7001,1,3,67,demote,1,3406
135,7001,1,3,68,limitation,1,1020
136,7001,1,3,69,snudge,NA,4055
137,7001,1,3,70,affectionate,1,2595
138,7001,1,3,71,elude,5,3907
139,7001,1,3,72,participant,1,1965
140,7001,1,3,73,buffoon,7,2208
141,7001,1,3,74,accused,1,2050
142,7001,1,3,75,peppermint,1,1026
143,7002,1,4,1,kelp,1,6533
144,7002,1,4,2,hairpin,7,3531
145,7002,1,4,3,speeding,7,3792
146,7002,1,4,4,crumb,7,3185
147,7002,1,4,5,connected,6,5592
148,7002,1,4,6,payroll,2,7469
149,7002,1,4,7,hussy,6,2680
150,7002,1,4,8,aristocracy,6,5928
151,7002,1,4,9,defy,7,1646
152,7002,1,4,10,chose,2,4563
153,7002,1,4,11,utterly,4,2707
154,7002,1,4,12,homeless,7,2295
155,7002,1,4,13,coleslaw,6,2407
156,7002,1,4,14,wrongful,7,3240
157,7002,1,4,15,putrid,7,2305
158,7002,1,4,16,multimedia,6,3387
159,7002,1,4,17,make,1,2437
160,7002,1,4,18,nun,6,2201
161,7002,1,4,19,want,1,3099
162,7002,1,4,20,round,7,1726
163,7002,1,4,21,literality,5,3605
164,7002,1,4,22,mash,7,2905
165,7002,1,4,23,pervasive,5,2562
166,7002,1,4,24,slobber,7,1949
167,7002,1,4,25,mini,6,2417
168,7002,1,4,26,January,1,2748
169,7002,1,4,27,glider,7,1838
170,7002,1,4,28,dwell,6,5231
171,7002,1,4,29,embellish,5,2719
172,7002,1,4,31,under,6,2557
173,7002,1,4,32,innocent,4,1809
174,7002,1,4,33,brassiere,2,1912
175,7002,1,4,34,basin,6,2121
176,7002,1,4,35,intro,3,5466
177,7002,1,4,36,prostitute,5,1964
178,7002,1,4,37,template,4,1852
179,7002,1,4,38,distinct,6,2446
180,7002,1,4,39,haystack,7,1488
181,7002,1,4,40,fight,5,2059
182,7002,1,4,41,tournament,2,2005
183,7002,1,4,42,audacity,1,5300
184,7002,1,4,43,aim,6,3085
185,7002,1,4,44,foam,7,1627
186,7002,1,4,46,shake,7,2507
187,7002,1,4,47,comedian,2,2444
188,7002,1,4,48,bulky,7,2381
189,7002,1,4,49,swept,3,2319
190,7002,1,4,50,sofa,2,2456
191,7002,1,4,51,diagram,6,1981
192,7002,1,4,52,ground,7,2757
193,7002,1,4,53,learning,1,3230
194,7002,1,4,54,times,1,2322
195,7002,1,4,56,newish,2,4674
196,7002,1,4,57,belt,2,4429
197,7002,1,4,58,down,7,1822
198,7002,1,4,59,fallacy,1,3162
199,7002,1,4,60,reportedly,1,2050
200,7002,1,4,61,strung,6,2410
201,7002,1,4,62,radiator,1,1662
202,7002,1,4,63,scaffold,6,2254
203,7002,1,4,64,ethnic,5,4236
204,7002,1,4,65,momentary,6,2984
205,7002,1,4,66,twinge,7,1677
206,7002,1,4,67,chalet,4,2138
207,7002,1,4,68,depressive,1,1727
208,7002,1,4,69,court,1,2061
209,7002,1,4,70,owl,1,3353
210,7002,1,4,71,sticker,4,1786
211,7002,1,4,72,frugality,1,1659
212,7002,1,4,73,plumber,4,2082
213,7002,1,4,74,actor,4,1480
214,7003,1,1,1,murky,6,3321
215,7003,1,1,2,reform,3,4189
216,7003,1,1,3,twister,5,5540
217,7003,1,1,4,breakage,2,5021
218,7003,1,1,5,bloodbath,5,15899
219,7003,1,1,6,measurement,1,3267
220,7003,1,1,7,allegiance,1,2876
221,7003,1,1,8,distrustful,3,3520
222,7003,1,1,9,cubicle,6,3756
223,7003,1,1,10,adulterer,1,4395
224,7003,1,1,11,tireless,4,4298
225,7003,1,1,12,responsible,2,3684
226,7003,1,1,13,lactose,1,4772
227,7003,1,1,14,dialysis,3,3806
228,7003,1,1,15,circumspect,4,5875
229,7003,1,1,16,sulphur,6,5697
230,7003,1,1,17,constitute,2,2414
231,7003,1,1,18,delightful,5,2748
232,7003,1,1,19,trade,4,3116
233,7003,1,1,20,butler,5,4973
234,7003,1,1,21,colossal,7,2903
235,7003,1,1,22,prune,7,2724
236,7003,1,1,23,qualified,2,3437
237,7003,1,1,24,misread,3,10601
238,7003,1,1,25,instruct,5,2520
239,7003,1,1,26,library,4,4396
240,7003,1,1,28,peace,7,2863
241,7003,1,1,29,screenplay,4,8502
242,7003,1,1,30,aunt,1,3027
243,7003,1,1,31,whirr,7,1718
244,7003,1,1,32,porch,3,3736
245,7003,1,1,33,lowly,5,6261
246,7003,1,1,34,phenomenal,4,7426
247,7003,1,1,35,valley,6,2737
248,7003,1,1,36,sight,5,6588
249,7003,1,1,37,honeycomb,1,4414
250,7003,1,1,38,nirvana,3,10357
251,7003,1,1,39,freakish,6,2352
252,7003,1,1,40,stalked,5,6575
253,7003,1,1,41,pant,7,2832
254,7003,1,1,42,stinky,5,3281
255,7003,1,1,43,excise,6,2684
256,7003,1,1,44,mammal,2,2450
257,7003,1,1,45,gamble,2,6855
258,7003,1,1,46,yank,7,1863
259,7003,1,1,47,sympathetic,4,4066
260,7003,1,1,48,empress,2,9835
261,7003,1,1,49,handshake,6,3079
262,7003,1,1,50,theorize,3,4589
263,7003,1,1,51,coverage,4,6913
264,7003,1,1,52,hydroplane,1,2710
265,7003,1,1,53,articulate,4,5059
266,7003,1,1,54,drill,7,4777
267,7003,1,1,55,uneventful,2,3256
268,7003,1,1,56,here,4,2942
269,7003,1,1,58,faulty,5,4304
270,7003,1,1,59,smash,7,1674
271,7003,1,1,60,momma,7,3057
272,7003,1,1,61,earnest,1,3768
273,7003,1,1,62,ruffle,7,4295
274,7003,1,1,63,solitaire,4,4114
275,7003,1,1,65,deserving,2,3074
276,7003,1,1,66,goo-goo,7,6433
277,7003,1,1,67,competence,1,5836
278,7003,1,1,68,bass,3,10826
279,7003,1,1,69,invariant,1,4596
280,7003,1,1,71,observer,3,3217
281,7003,1,1,72,jealous,5,4179
282,7003,1,1,73,grump,7,3760
283,7003,1,1,74,change,4,2158
284,7003,1,1,75,fixation,1,4487
285,7004,1,3,1,preoccupy,1,6114
286,7004,1,3,2,participant,4,7057
287,7004,1,3,3,elude,5,4532
288,7004,1,3,4,salamander,2,5002
289,7004,1,3,5,leader,5,7826
290,7004,1,3,6,toothpaste,7,5701
291,7004,1,3,7,tram,2,3477
292,7004,1,3,8,irate,2,3493
293,7004,1,3,9,sweater,6,2569
294,7004,1,3,10,beanie,3,5552
295,7004,1,3,11,gull,1,3851
296,7004,1,3,12,accused,2,4428
297,7004,1,3,13,utility,5,4602
298,7004,1,3,14,several,1,3068
299,7004,1,3,15,extravagant,7,2317
300,7004,1,3,16,peppermint,7,1868
301,7004,1,3,17,crimson,3,4120
302,7004,1,3,18,racist,6,6281
303,7004,1,3,19,flow,6,2696
304,7004,1,3,20,Sparks,7,4491
305,7004,1,3,21,playback,6,4025
306,7004,1,3,22,methodology,3,2547
307,7004,1,3,24,frostbite,7,2516
308,7004,1,3,25,affectionate,3,2526
309,7004,1,3,26,mobility,5,2594
310,7004,1,3,27,option,2,2809
311,7004,1,3,28,clove,3,2971
312,7004,1,3,29,escort,4,2926
313,7004,1,3,30,sincere,2,2404
314,7004,1,3,31,hobble,7,1676
315,7004,1,3,32,babble,7,1879
316,7004,1,3,33,boyish,5,3456
317,7004,1,3,34,limitation,6,2971
318,7004,1,3,35,disenfranchise,1,3182
319,7004,1,3,36,replay,6,2023
320,7004,1,3,37,wallop,7,2157
321,7004,1,3,39,magnet,2,2390
322,7004,1,3,40,detergent,3,2700
323,7004,1,3,41,athletics,4,4482
324,7004,1,3,42,unbecoming,1,2855
325,7004,1,3,43,choice,2,1749
326,7004,1,3,44,joystick,7,1868
327,7004,1,3,45,tighten,2,3394
328,7004,1,3,46,grid,1,2250
329,7004,1,3,48,muffler,6,2627
330,7004,1,3,49,combative,5,2543
331,7004,1,3,50,gigantic,6,3252
332,7004,1,3,51,tech,1,2624
333,7004,1,3,52,start,2,3806
334,7004,1,3,53,harmonica,4,2882
335,7004,1,3,54,snudge,1,2532
336,7004,1,3,55,droplet,5,2743
337,7004,1,3,56,woe,1,2916
338,7004,1,3,58,punt,3,5556
339,7004,1,3,59,century,3,5911
340,7004,1,3,60,corset,2,1950
341,7004,1,3,61,rocker,6,2155
342,7004,1,3,62,intercom,1,1941
343,7004,1,3,63,defensible,2,2270
344,7004,1,3,64,approve,3,1754
345,7004,1,3,65,hurry,6,2294
346,7004,1,3,66,buffoon,4,2527
347,7004,1,3,67,stressful,3,2417
348,7004,1,3,68,marsh,6,1827
349,7004,1,3,69,neediness,4,4576
350,7004,1,3,70,demote,2,3393
351,7004,1,3,71,congruity,5,2302
352,7004,1,3,72,nuclear,7,2999
353,7004,1,3,73,festival,6,2436
354,7004,1,3,74,dolphin,5,3421
355,7004,1,3,75,inconstant,1,1853
356,7005,1,4,1,comedian,5,5267
357,7005,1,4,2,belt,7,2756
358,7005,1,4,3,foam,7,1905
359,7005,1,4,4,mash,7,1689
360,7005,1,4,5,swept,6,1601
361,7005,1,4,6,chalet,2,4717
362,7005,1,4,7,court,5,1644
363,7005,1,4,8,fallacy,6,2580
364,7005,1,4,9,wrongful,7,1784
365,7005,1,4,10,mini,7,2659
366,7005,1,4,11,utterly,3,2853
367,7005,1,4,12,crumb,6,2528
368,7005,1,4,13,audacity,1,3622
369,7005,1,4,14,want,5,1831
370,7005,1,4,15,distinct,6,1593
371,7005,1,4,16,brassiere,2,2177
372,7005,1,4,17,ethnic,1,2630
373,7005,1,4,19,newish,4,1634
374,7005,1,4,20,haystack,6,2303
375,7005,1,4,21,aristocracy,5,3106
376,7005,1,4,22,down,7,1700
377,7005,1,4,23,coleslaw,6,1687
378,7005,1,4,24,radiator,3,1579
379,7005,1,4,25,scaffold,3,1332
380,7005,1,4,26,basin,5,1901
381,7005,1,4,27,hairpin,7,1919
382,7005,1,4,28,nun,6,2069
383,7005,1,4,29,dwell,6,1339
384,7005,1,4,30,tournament,5,1107
385,7005,1,4,31,make,3,2390
386,7005,1,4,32,twinge,7,1652
387,7005,1,4,33,multimedia,6,1208
388,7005,1,4,34,plumber,7,1768
389,7005,1,4,36,depressive,6,6692
390,7005,1,4,37,kelp,5,1151
391,7005,1,4,38,bulky,7,2133
392,7005,1,4,39,sofa,1,2436
393,7005,1,4,40,ground,5,2074
394,7005,1,4,41,chose,1,2346
395,7005,1,4,42,reportedly,6,1750
396,7005,1,4,43,pervasive,5,11315
397,7005,1,4,44,diagram,4,1217
398,7005,1,4,45,innocent,6,1094
399,7005,1,4,46,momentary,1,3391
400,7005,1,4,48,homeless,7,2699
401,7005,1,4,49,aim,6,1082
402,7005,1,4,50,intro,6,1598
403,7005,1,4,51,glider,7,1588
404,7005,1,4,52,putrid,7,1814
405,7005,1,4,53,January,1,2416
406,7005,1,4,54,payroll,7,2421
407,7005,1,4,55,prostitute,1,2023
408,7005,1,4,56,template,5,1400
409,7005,1,4,57,frugality,3,1512
410,7005,1,4,58,embellish,6,1966
411,7005,1,4,59,round,7,2705
412,7005,1,4,60,shake,7,1353
413,7005,1,4,61,owl,1,2051
414,7005,1,4,62,under,6,1404
415,7005,1,4,63,learning,5,1481
416,7005,1,4,64,fight,2,2395
417,7005,1,4,65,strung,7,2541
418,7005,1,4,67,connected,6,2117
419,7005,1,4,68,times,4,1672
420,7005,1,4,69,defy,7,3152
421,7005,1,4,70,sticker,7,1581
422,7005,1,4,71,slobber,7,1503
423,7005,1,4,72,actor,3,2090
424,7005,1,4,73,speeding,7,2153
425,7005,1,4,74,literality,6,1087
426,7005,1,4,75,hussy,1,2887
427,7006,1,3,1,crimson,6,10270
428,7006,1,3,2,muffler,4,5759
429,7006,1,3,3,grid,5,5428
430,7006,1,3,4,toothpaste,7,4801
431,7006,1,3,5,participant,5,5456
432,7006,1,3,6,tram,5,7620
433,7006,1,3,7,racist,4,6292
434,7006,1,3,8,tighten,3,4965
435,7006,1,3,9,unbecoming,4,5831
436,7006,1,3,10,harmonica,5,6260
437,7006,1,3,11,intercom,4,5209
438,7006,1,3,12,flow,4,3558
439,7006,1,3,13,buffoon,3,4922
440,7006,1,3,14,leader,6,5349
441,7006,1,3,15,droplet,7,4424
442,7006,1,3,16,escort,4,4790
443,7006,1,3,17,mobility,4,5102
444,7006,1,3,18,gull,4,5391
445,7006,1,3,20,gigantic,4,7571
446,7006,1,3,19,affectionate,5,4466
447,7006,1,3,21,century,4,4869
448,7006,1,3,22,sincere,2,5768
449,7006,1,3,23,rocker,4,4075
450,7006,1,3,25,approve,3,8755
451,7006,1,3,26,athletics,2,5654
452,7006,1,3,27,playback,4,5802
453,7006,1,3,28,hurry,4,3977
454,7006,1,3,29,extravagant,3,3678
455,7006,1,3,30,replay,4,5006
456,7006,1,3,31,stressful,6,6244
457,7006,1,3,32,punt,3,4893
458,7006,1,3,33,sweater,4,3534
459,7006,1,3,34,snudge,NA,8560
460,7006,1,3,35,elude,4,4538
461,7006,1,3,36,magnet,5,3549
462,7006,1,3,38,wallop,1,7362
463,7006,1,3,39,hobble,4,4194
464,7006,1,3,40,congruity,3,4481
465,7006,1,3,41,combative,5,3120
466,7006,1,3,42,accused,4,2930
467,7006,1,3,43,babble,6,2617
468,7006,1,3,44,nuclear,7,3833
469,7006,1,3,45,Sparks,7,3404
470,7006,1,3,46,disenfranchise,2,4461
471,7006,1,3,48,irate,2,2638
472,7006,1,3,49,inconstant,3,12147
473,7006,1,3,50,joystick,4,2870
474,7006,1,3,51,detergent,4,17089
475,7006,1,3,52,beanie,2,8326
476,7006,1,3,53,festival,3,4483
477,7006,1,3,54,tech,4,3073
478,7006,1,3,55,limitation,5,2285
479,7006,1,3,57,dolphin,4,3134
480,7006,1,3,58,preoccupy,4,2160
481,7006,1,3,59,neediness,5,4433
482,7006,1,3,60,demote,3,2943
483,7006,1,3,61,frostbite,4,2598
484,7006,1,3,62,boyish,7,3054
485,7006,1,3,63,salamander,4,4154
486,7006,1,3,64,utility,4,4121
487,7006,1,3,65,start,5,5338
488,7006,1,3,66,woe,6,4832
489,7006,1,3,67,clove,4,5649
490,7006,1,3,68,choice,5,2862
491,7006,1,3,69,defensible,4,4012
492,7006,1,3,70,several,3,3527
493,7006,1,3,71,methodology,4,4278
494,7006,1,3,72,peppermint,6,4324
495,7006,1,3,73,corset,2,5450
496,7006,1,3,74,option,3,4635
497,7006,1,3,75,marsh,4,5871
498,7007,1,2,1,safe,3,5753
499,7007,1,2,2,brick,4,3635
500,7007,1,2,3,tombstone,5,5344
501,7007,1,2,4,accusative,1,2838
502,7007,1,2,5,thug,4,2321
503,7007,1,2,6,frightful,5,6544
504,7007,1,2,7,Mafia,2,2201
505,7007,1,2,8,my,1,2414
506,7007,1,2,9,jigsaw,6,5363
507,7007,1,2,10,parenthesis,1,2246
508,7007,1,2,11,soul,2,1841
509,7007,1,2,12,hideous,1,2823
510,7007,1,2,13,stamina,2,2126
511,7007,1,2,14,cavern,4,2218
512,7007,1,2,15,fertilize,3,2572
513,7007,1,2,16,quite,2,2075
514,7007,1,2,17,urine,3,3658
515,7007,1,2,18,simplistic,2,3220
516,7007,1,2,19,retail,1,2519
517,7007,1,2,20,preacher,6,2874
518,7007,1,2,21,droop,7,2241
519,7007,1,2,22,invoice,2,3583
520,7007,1,2,23,column,4,2429
521,7007,1,2,24,artistic,3,1910
522,7007,1,2,25,cranky,5,2413
523,7007,1,2,26,your,1,2513
524,7007,1,2,27,two,2,4209
525,7007,1,2,28,excite,3,2576
526,7007,1,2,29,bought,2,3241
527,7007,1,2,30,circus,3,1877
528,7007,1,2,31,sent,1,1822
529,7007,1,2,32,cup,4,2149
530,7007,1,2,33,elaborate,1,2715
531,7007,1,2,34,pickax,5,2781
532,7007,1,2,35,misunderstanding,3,3004
533,7007,1,2,36,advised,2,1767
534,7007,1,2,37,pumpkin,3,2926
535,7007,1,2,38,happiness,2,3120
536,7007,1,2,39,implicate,1,1940
537,7007,1,2,40,whisper,5,2200
538,7007,1,2,41,traitor,3,2392
539,7007,1,2,42,nostalgic,2,2317
540,7007,1,2,43,alternate,1,1978
541,7007,1,2,44,grandfather,4,3327
542,7007,1,2,45,contradictive,2,2552
543,7007,1,2,46,floating,3,2085
544,7007,1,2,47,deluxe,3,15072
545,7007,1,2,48,tear,5,4235
546,7007,1,2,49,bayonet,2,2234
547,7007,1,2,50,ligament,3,2070
548,7007,1,2,51,mandolin,3,2535
549,7007,1,2,52,pensive,2,1637
550,7007,1,2,53,opening,3,1968
551,7007,1,2,54,avoid,1,2132
552,7007,1,2,55,rekindle,4,3514
553,7007,1,2,56,veggie,3,2645
554,7007,1,2,57,hump,5,2124
555,7007,1,2,58,divulge,2,1615
556,7007,1,2,59,strategy,1,1757
557,7007,1,2,60,lash,6,1905
558,7007,1,2,61,motel,3,1847
559,7007,1,2,62,guidebook,2,1662
560,7007,1,2,63,childlike,3,1848
561,7007,1,2,65,melt,4,2271
562,7007,1,2,66,detach,3,2564
563,7007,1,2,67,dilute,4,2741
564,7007,1,2,68,entity,2,1705
565,7007,1,2,69,complimentary,1,1762
566,7007,1,2,71,snappy,6,2314
567,7007,1,2,73,surreal,2,2206
568,7007,1,2,74,geyser,4,2252
569,7007,1,2,75,integrity,1,2455
570,7008,1,4,1,basin,2,5877
571,7008,1,4,2,mash,7,4403
572,7008,1,4,3,utterly,1,4230
573,7008,1,4,4,sofa,1,5388
574,7008,1,4,5,January,1,2878
575,7008,1,4,6,court,7,2694
576,7008,1,4,7,aim,2,25580
577,7008,1,4,8,innocent,7,2092
578,7008,1,4,9,chalet,1,2335
579,7008,1,4,10,hussy,1,2595
580,7008,1,4,11,kelp,1,2275
581,7008,1,4,12,times,7,2384
582,7008,1,4,13,fallacy,5,3467
583,7008,1,4,14,prostitute,7,3656
584,7008,1,4,15,foam,3,2819
585,7008,1,4,16,mini,7,2203
586,7008,1,4,17,multimedia,7,5848
587,7008,1,4,18,bulky,7,3698
588,7008,1,4,19,shake,7,2866
589,7008,1,4,20,ground,7,5666
590,7008,1,4,21,sticker,6,2478
591,7008,1,4,22,momentary,7,6916
592,7008,1,4,24,newish,7,2798
593,7008,1,4,25,coleslaw,1,2542
594,7008,1,4,26,pervasive,2,3612
595,7008,1,4,27,learning,7,2552
596,7008,1,4,28,payroll,7,2011
597,7008,1,4,29,diagram,1,3528
598,7008,1,4,31,radiator,3,4372
599,7008,1,4,32,plumber,1,7034
600,7008,1,4,33,audacity,2,3575
601,7008,1,4,34,aristocracy,4,3618
602,7008,1,4,35,dwell,6,2191
603,7008,1,4,36,brassiere,3,3673
604,7008,1,4,38,distinct,1,3756
605,7008,1,4,39,strung,2,6622
606,7008,1,4,40,crumb,1,3089
607,7008,1,4,41,speeding,7,2925
608,7008,1,4,42,wrongful,7,11905
609,7008,1,4,43,actor,7,2747
610,7008,1,4,44,comedian,7,2362
611,7008,1,4,45,ethnic,1,3481
612,7008,1,4,46,nun,1,6586
613,7008,1,4,47,haystack,7,2680
614,7008,1,4,48,scaffold,1,4723
615,7008,1,4,49,swept,7,4351
616,7008,1,4,50,template,2,6081
617,7008,1,4,51,glider,6,2412
618,7008,1,4,52,under,7,2711
619,7008,1,4,53,literality,3,3759
620,7008,1,4,54,slobber,1,2920
621,7008,1,4,55,homeless,7,2340
622,7008,1,4,56,hairpin,7,3762
623,7008,1,4,57,intro,7,3590
624,7008,1,4,58,embellish,1,4505
625,7008,1,4,59,depressive,5,3139
626,7008,1,4,60,defy,6,8719
627,7008,1,4,62,owl,1,2316
628,7008,1,4,63,putrid,1,2147
629,7008,1,4,64,chose,6,8232
630,7008,1,4,65,down,1,6316
631,7008,1,4,66,round,7,3347
632,7008,1,4,67,frugality,1,12920
633,7008,1,4,68,twinge,1,2440
634,7008,1,4,69,want,7,3874
635,7008,1,4,70,tournament,1,2905
636,7008,1,4,71,fight,7,2159
637,7008,1,4,72,connected,7,4333
638,7008,1,4,73,make,5,2803
639,7008,1,4,74,reportedly,3,2350
640,7008,1,4,75,belt,3,4595
641,7009,1,2,1,parenthesis,2,5663
642,7009,1,2,2,pickax,3,3316
643,7009,1,2,3,complimentary,3,6007
644,7009,1,2,4,two,6,1593
645,7009,1,2,5,dilute,3,2985
646,7009,1,2,6,surreal,4,2259
647,7009,1,2,7,motel,5,2138
648,7009,1,2,8,ligament,5,3269
649,7009,1,2,9,stamina,3,1335
650,7009,1,2,10,snappy,6,2322
651,7009,1,2,11,thug,6,17103
652,7009,1,2,12,fertilize,3,2013
653,7009,1,2,13,detach,5,4218
654,7009,1,2,14,hideous,5,2007
655,7009,1,2,15,contradictive,3,2015
656,7009,1,2,16,guidebook,4,1617
657,7009,1,2,17,melt,6,2177
658,7009,1,2,19,advised,3,1448
659,7009,1,2,20,veggie,5,1297
660,7009,1,2,21,alternate,4,1210
661,7009,1,2,22,strategy,5,1598
662,7009,1,2,23,happiness,5,1760
663,7009,1,2,24,artistic,3,1490
664,7009,1,2,25,elaborate,6,1687
665,7009,1,2,26,nostalgic,2,2725
666,7009,1,2,27,quite,6,1810
667,7009,1,2,28,my,7,1666
668,7009,1,2,30,cranky,6,1746
669,7009,1,2,31,entity,3,1729
670,7009,1,2,32,whisper,2,182
671,7009,1,2,33,safe,5,1978
672,7009,1,2,35,brick,5,1683
673,7009,1,2,36,misunderstanding,2,1707
674,7009,1,2,37,divulge,5,7516
675,7009,1,2,38,lash,6,1296
676,7009,1,2,39,preacher,5,2312
677,7009,1,2,40,column,2,2100
678,7009,1,2,41,invoice,3,1579
679,7009,1,2,42,tombstone,2,3168
680,7009,1,2,43,simplistic,2,1884
681,7009,1,2,44,urine,3,1390
682,7009,1,2,45,integrity,2,2248
683,7009,1,2,46,grandfather,3,1894
684,7009,1,2,47,retail,3,1821
685,7009,1,2,48,avoid,5,1370
686,7009,1,2,49,cavern,3,1708
687,7009,1,2,50,traitor,4,2648
688,7009,1,2,51,sent,5,1042
689,7009,1,2,52,rekindle,2,1426
690,7009,1,2,53,floating,2,1806
691,7009,1,2,54,deluxe,3,1528
692,7009,1,2,55,mandolin,2,1524
693,7009,1,2,56,hump,6,2225
694,7009,1,2,57,circus,2,1904
695,7009,1,2,58,pumpkin,5,2549
696,7009,1,2,59,soul,6,2145
697,7009,1,2,60,pensive,5,1768
698,7009,1,2,61,jigsaw,3,1479
699,7009,1,2,62,geyser,2,2467
700,7009,1,2,63,bought,6,1486
701,7009,1,2,64,your,4,1629
702,7009,1,2,65,Mafia,3,1231
703,7009,1,2,66,excite,5,1338
704,7009,1,2,67,opening,2,1274
705,7009,1,2,68,droop,6,1650
706,7009,1,2,69,bayonet,3,1318
707,7009,1,2,70,childlike,3,1673
708,7009,1,2,71,implicate,4,2536
709,7009,1,2,72,tear,5,1301
710,7009,1,2,73,frightful,3,2074
711,7009,1,2,74,cup,6,1762
712,7009,1,2,76,accusative,5,2156
713,7010,1,2,1,cavern,5,3241
714,7010,1,2,2,pensive,1,2662
715,7010,1,2,3,lash,6,2573
716,7010,1,2,4,snappy,7,1521
717,7010,1,2,5,veggie,2,2079
718,7010,1,2,6,stamina,3,2219
719,7010,1,2,7,parenthesis,2,1860
720,7010,1,2,8,whisper,7,2075
721,7010,1,2,9,frightful,5,1669
722,7010,1,2,10,childlike,2,2230
723,7010,1,2,11,tear,6,3258
724,7010,1,2,12,geyser,7,2662
725,7010,1,2,13,contradictive,2,1697
726,7010,1,2,14,invoice,1,1643
727,7010,1,2,15,implicate,5,1890
728,7010,1,2,16,hideous,6,2088
729,7010,1,2,17,mandolin,2,2503
730,7010,1,2,18,sent,4,2927
731,7010,1,2,19,elaborate,5,2132
732,7010,1,2,20,circus,6,3272
733,7010,1,2,21,ligament,7,1903
734,7010,1,2,22,detach,7,1922
735,7010,1,2,23,accusative,4,2286
736,7010,1,2,24,urine,5,2607
737,7010,1,2,25,pickax,7,2146
738,7010,1,2,26,traitor,5,3843
739,7010,1,2,27,cup,6,2746
740,7010,1,2,28,thug,2,2395
741,7010,1,2,29,misunderstanding,1,3313
742,7010,1,2,30,soul,4,1609
743,7010,1,2,31,happiness,3,2012
744,7010,1,2,32,jigsaw,6,1791
745,7010,1,2,33,brick,5,2065
746,7010,1,2,34,nostalgic,5,4167
747,7010,1,2,35,strategy,4,2391
748,7010,1,2,36,your,6,2740
749,7010,1,2,37,floating,7,3588
750,7010,1,2,38,artistic,2,2134
751,7010,1,2,39,simplistic,7,2339
752,7010,1,2,40,safe,6,1476
753,7010,1,2,42,surreal,5,4157
754,7010,1,2,43,motel,1,1567
755,7010,1,2,44,opening,6,1854
756,7010,1,2,45,guidebook,2,2209
757,7010,1,2,46,bayonet,4,1967
758,7010,1,2,47,quite,1,2714
759,7010,1,2,48,column,7,2223
760,7010,1,2,49,entity,4,2392
761,7010,1,2,50,rekindle,5,1598
762,7010,1,2,52,grandfather,5,2654
763,7010,1,2,53,bought,2,6522
764,7010,1,2,55,integrity,6,1785
765,7010,1,2,56,cranky,7,1638
766,7010,1,2,57,excite,6,1944
767,7010,1,2,58,Mafia,3,2688
768,7010,1,2,59,hump,5,2319
769,7010,1,2,60,tombstone,6,2821
770,7010,1,2,61,alternate,5,1692
771,7010,1,2,62,complimentary,4,2552
772,7010,1,2,63,droop,7,1679
773,7010,1,2,64,advised,2,2389
774,7010,1,2,65,divulge,5,1531
775,7010,1,2,66,preacher,6,1547
776,7010,1,2,67,avoid,7,2128
777,7010,1,2,68,deluxe,5,1551
778,7010,1,2,69,my,7,2892
779,7010,1,2,70,two,7,1746
780,7010,1,2,71,retail,3,1781
781,7010,1,2,72,dilute,5,1784
782,7010,1,2,73,melt,7,1547
783,7010,1,2,75,fertilize,5,2106
784,7010,1,2,76,pumpkin,6,2926
785,7011,1,4,1,haystack,4,3004
786,7011,1,4,2,slobber,7,4227
787,7011,1,4,3,chose,1,2266
788,7011,1,4,4,homeless,4,1532
789,7011,1,4,5,round,6,1870
790,7011,1,4,6,aim,2,1694
791,7011,1,4,7,kelp,5,2408
792,7011,1,4,8,mash,7,1848
793,7011,1,4,9,owl,3,1800
794,7011,1,4,10,basin,4,1820
795,7011,1,4,11,plumber,5,2178
796,7011,1,4,12,court,3,1776
797,7011,1,4,13,down,5,2050
798,7011,1,4,14,fight,5,1952
799,7011,1,4,15,multimedia,1,2067
800,7011,1,4,17,actor,6,2318
801,7011,1,4,18,coleslaw,5,3636
802,7011,1,4,19,bulky,7,1856
803,7011,1,4,20,pervasive,2,1576
804,7011,1,4,21,mini,6,2246
805,7011,1,4,22,nun,4,2154
806,7011,1,4,23,shake,5,2522
807,7011,1,4,24,putrid,6,1902
808,7011,1,4,25,utterly,3,1648
809,7011,1,4,26,defy,3,2203
810,7011,1,4,27,template,2,2442
811,7011,1,4,28,distinct,5,1683
812,7011,1,4,30,depressive,5,5063
813,7011,1,4,31,dwell,6,1660
814,7011,1,4,32,literality,3,2104
815,7011,1,4,33,prostitute,3,217
816,7011,1,4,34,times,6,1949
817,7011,1,4,35,belt,7,2263
818,7011,1,4,36,diagram,3,2600
819,7011,1,4,37,reportedly,4,1419
820,7011,1,4,38,frugality,3,1825
821,7011,1,4,39,embellish,2,3051
822,7011,1,4,40,ground,4,1962
823,7011,1,4,42,crumb,7,2134
824,7011,1,4,43,speeding,4,2061
825,7011,1,4,44,connected,2,3511
826,7011,1,4,45,strung,6,2510
827,7011,1,4,46,ethnic,3,1708
828,7011,1,4,47,want,5,1982
829,7011,1,4,48,innocent,2,2100
830,7011,1,4,49,payroll,6,2015
831,7011,1,4,50,sticker,4,1470
832,7011,1,4,51,radiator,3,1715
833,7011,1,4,52,hussy,7,1646
834,7011,1,4,53,tournament,5,2590
835,7011,1,4,54,scaffold,4,1924
836,7011,1,4,55,aristocracy,6,6018
837,7011,1,4,56,under,5,1980
838,7011,1,4,57,twinge,7,2684
839,7011,1,4,58,comedian,2,2412
840,7011,1,4,59,make,5,1852
841,7011,1,4,60,glider,5,1249
842,7011,1,4,61,audacity,2,2278
843,7011,1,4,62,momentary,5,1752
844,7011,1,4,63,brassiere,1,2259
845,7011,1,4,64,hairpin,5,1986
846,7011,1,4,65,chalet,6,1713
847,7011,1,4,66,fallacy,4,2368
848,7011,1,4,67,sofa,5,1852
849,7011,1,4,68,foam,7,3465
850,7011,1,4,69,swept,5,1604
851,7011,1,4,70,intro,2,2178
852,7011,1,4,72,wrongful,5,2825
853,7011,1,4,73,January,6,2258
854,7011,1,4,74,newish,5,1745
855,7011,1,4,75,learning,3,1958
856,7012,1,3,1,beanie,1,2740
857,7012,1,3,2,start,4,4526
858,7012,1,3,3,combative,2,4832
859,7012,1,3,4,crimson,1,3240
860,7012,1,3,5,detergent,1,1235
861,7012,1,3,6,sincere,1,4277
862,7012,1,3,7,muffler,6,3132
863,7012,1,3,8,neediness,4,7500
864,7012,1,3,9,festival,1,2630
865,7012,1,3,10,participant,1,960
866,7012,1,3,11,accused,4,4612
867,7012,1,3,12,clove,1,2119
868,7012,1,3,13,racist,1,1205
869,7012,1,3,14,buffoon,6,5244
870,7012,1,3,15,affectionate,1,1393
871,7012,1,3,17,flow,4,3423
872,7012,1,3,18,woe,6,3045
873,7012,1,3,19,tech,1,1785
874,7012,1,3,20,leader,1,51994
875,7012,1,3,21,irate,7,3296
876,7012,1,3,22,limitation,1,1462
877,7012,1,3,23,rocker,4,5593
878,7012,1,3,24,inconstant,2,1596
879,7012,1,3,25,stressful,2,2748
880,7012,1,3,26,corset,6,1862
881,7012,1,3,27,several,1,1689
882,7012,1,3,28,grid,1,931
883,7012,1,3,29,magnet,1,1158
884,7012,1,3,30,intercom,1,954
885,7012,1,3,31,congruity,1,1134
886,7012,1,3,32,babble,7,2068
887,7012,1,3,33,choice,1,1297
888,7012,1,3,34,gigantic,6,3500
889,7012,1,3,35,nuclear,1,1587
890,7012,1,3,36,hurry,1,1488
891,7012,1,3,37,hobble,6,1681
892,7012,1,3,38,approve,1,1533
893,7012,1,3,39,harmonica,3,5367
894,7012,1,3,40,Sparks,7,2175
895,7012,1,3,41,marsh,3,4215
896,7012,1,3,42,punt,6,2551
897,7012,1,3,43,boyish,1,1455
898,7012,1,3,44,option,1,915
899,7012,1,3,45,dolphin,1,1212
900,7012,1,3,46,droplet,1,938
901,7012,1,3,47,extravagant,1,1048
902,7012,1,3,48,century,1,3230
903,7012,1,3,49,toothpaste,1,969
904,7012,1,3,50,preoccupy,1,889
905,7012,1,3,51,disenfranchise,1,1471
906,7012,1,3,52,elude,4,2842
907,7012,1,3,53,peppermint,1,1628
908,7012,1,3,54,athletics,1,780
909,7012,1,3,55,replay,1,1173
910,7012,1,3,56,salamander,1,2849
911,7012,1,3,57,playback,1,5831
912,7012,1,3,58,snudge,7,2536
913,7012,1,3,59,gull,1,1697
914,7012,1,3,60,unbecoming,1,2239
915,7012,1,3,61,methodology,1,694
916,7012,1,3,62,wallop,7,2960
917,7012,1,3,63,escort,1,1477
918,7012,1,3,64,joystick,1,969
919,7012,1,3,65,defensible,1,703
920,7012,1,3,67,sweater,1,4780
921,7012,1,3,68,utility,1,718
922,7012,1,3,69,demote,1,853
923,7012,1,3,70,mobility,1,1031
924,7012,1,3,72,frostbite,4,3116
925,7012,1,3,73,tram,1,1660
926,7012,1,3,74,tighten,4,2612
927,7013,1,3,1,hurry,5,15776
928,7013,1,3,2,frostbite,7,3781
929,7013,1,3,3,escort,7,2012
930,7013,1,3,4,gigantic,7,1390
931,7013,1,3,5,disenfranchise,5,2716
932,7013,1,3,6,festival,6,1926
933,7013,1,3,7,snudge,6,895
934,7013,1,3,8,sincere,7,2130
935,7013,1,3,9,replay,6,2077
936,7013,1,3,10,congruity,4,2221
937,7013,1,3,11,tighten,5,1523
938,7013,1,3,12,rocker,6,1419
939,7013,1,3,13,grid,6,1070
940,7013,1,3,14,start,6,964
941,7013,1,3,15,playback,6,972
942,7013,1,3,16,choice,4,5147
943,7013,1,3,17,toothpaste,5,2835
944,7013,1,3,18,dolphin,5,1136
945,7013,1,3,19,racist,5,1598
946,7013,1,3,20,approve,5,3383
947,7013,1,3,21,magnet,6,3530
948,7013,1,3,22,babble,3,4184
949,7013,1,3,23,detergent,5,2387
950,7013,1,3,24,several,5,920
951,7013,1,3,25,crimson,6,5027
952,7013,1,3,26,neediness,3,2834
953,7013,1,3,27,woe,2,3578
954,7013,1,3,28,boyish,2,1572
955,7013,1,3,29,harmonica,5,2640
956,7013,1,3,30,accused,5,925
957,7013,1,3,31,tram,5,1296
958,7013,1,3,32,intercom,6,2123
959,7013,1,3,33,participant,6,810
960,7013,1,3,34,tech,6,958
961,7013,1,3,35,stressful,5,2502
962,7013,1,3,36,wallop,3,2582
963,7013,1,3,37,preoccupy,4,2356
964,7013,1,3,38,defensible,5,1936
965,7013,1,3,39,elude,5,631
966,7013,1,3,40,mobility,5,879
967,7013,1,3,41,demote,6,1328
968,7013,1,3,42,clove,6,2218
969,7013,1,3,43,hobble,5,800
970,7013,1,3,44,flow,4,986
971,7013,1,3,45,salamander,6,3399
972,7013,1,3,46,limitation,6,893
973,7013,1,3,47,nuclear,6,610
974,7013,1,3,49,muffler,5,2150
975,7013,1,3,50,sweater,5,964
976,7013,1,3,51,corset,4,2732
977,7013,1,3,53,peppermint,7,2162
978,7013,1,3,55,option,4,4575
979,7013,1,3,56,combative,5,1573
980,7013,1,3,57,unbecoming,3,6561
981,7013,1,3,58,extravagant,6,2769
982,7013,1,3,59,inconstant,3,11294
983,7013,1,3,60,leader,6,2444
984,7013,1,3,61,buffoon,2,3272
985,7013,1,3,62,marsh,4,2649
986,7013,1,3,63,century,6,3715
987,7013,1,3,64,affectionate,6,804
988,7013,1,3,65,beanie,5,1947
989,7013,1,3,66,punt,5,772
990,7013,1,3,68,athletics,7,2006
991,7013,1,3,69,droplet,3,4787
992,7013,1,3,70,joystick,5,3282
993,7013,1,3,71,utility,5,1456
994,7013,1,3,72,gull,6,1311
995,7013,1,3,73,methodology,6,842
996,7013,1,3,74,irate,5,2137
997,7013,1,3,75,Sparks,7,1823
