row_id,subj_code,batch_num,bin,trial_number,word,key,rt
1,5000,1,5,1,flamingo,4,4325
2,5000,1,5,2,pitch,5,1222
3,5000,1,5,3,tadpole,4,488
4,5000,1,5,4,clue,6,1622
5,5000,1,5,5,galore,6,2338
6,5000,1,5,6,truck,4,1137
7,5000,1,5,7,musky,3,1281
8,5000,1,5,8,article,5,944
9,5000,1,5,9,heartburn,4,1082
10,5000,1,5,10,incorrupt,5,3630
11,5000,1,5,11,soapbox,6,943
12,5000,1,5,12,weapon,7,1446
13,5000,1,5,13,gunpowder,5,1793
14,5000,1,5,14,mongoose,4,1277
15,5000,1,5,15,energize,5,1613
16,5000,1,5,16,spongy,5,646
17,5000,1,5,17,topless,4,1353
18,5000,1,5,18,crown,3,937
19,5000,1,5,19,bang,5,626
20,5000,1,5,20,nothingness,6,366
21,5000,1,5,21,skiddoo,7,374
22,5000,1,5,22,real,4,392
23,5000,1,5,23,immolate,3,466
24,5000,1,5,24,dedication,5,546
25,5000,1,5,25,malice,6,437
26,5000,1,5,26,cooperate,2,1010
27,5000,1,5,27,rickety,4,557
28,5000,1,5,28,fortunate,5,1011
29,5000,1,5,29,kickback,6,1095
30,5000,1,5,31,amusement,6,1532
31,5000,1,5,32,profound,5,977
32,5000,1,5,33,underachieve,4,512
33,5000,1,5,35,goofy,4,2329
34,5000,1,5,36,quarry,5,968
35,5000,1,5,37,boar,6,488
36,5000,1,5,39,therapist,5,868
37,5000,1,5,40,concert,6,188
38,5000,1,5,41,suckle,5,1505
39,5000,1,5,42,unsavory,4,1084
40,5000,1,5,43,load,3,1568
41,5000,1,5,44,shelve,4,857
42,5000,1,5,45,disapproval,5,566
43,5000,1,5,46,oregano,6,1275
44,5000,1,5,47,hoop,5,635
45,5000,1,5,48,cherub,4,421
46,5000,1,5,49,affable,3,462
47,5000,1,5,51,melancholy,5,1093
48,5000,1,5,52,ecosystem,6,666
49,5000,1,5,53,fatherly,7,2215
50,5000,1,5,54,initial,6,789
51,5000,1,5,55,postmark,7,352
52,5000,1,5,56,broadcast,5,781
53,5000,1,5,57,veracious,4,2561
54,5000,1,5,58,late,5,424
55,5000,1,5,59,stiff,6,856
56,5000,2,39,60,convict,4,1130
57,5000,2,39,61,enchant,5,957
58,5000,2,39,62,arresting,6,414
59,5000,2,39,63,blotchy,5,218
60,5000,2,39,64,declared,4,230
61,5000,2,39,65,safari,3,478
62,5000,2,39,66,illegitimate,5,991
63,5000,2,39,67,wince,6,439
64,5000,2,39,68,portfolio,5,464
65,5000,2,39,69,eating,4,456
66,5000,2,39,70,crossed,3,395
67,5000,2,39,71,dirty,7,1567
68,5000,2,39,72,tone,6,566
69,5000,2,39,73,amends,5,1515
70,5000,2,39,74,oomph,4,734
71,5000,2,39,75,waste,6,321
72,5000,2,39,76,thankless,7,457
73,5000,2,39,78,sphere,4,1907
74,5000,2,39,79,rhino,5,992
75,5000,2,39,80,gain,6,1038
76,5000,2,39,81,rejoin,7,514
77,5000,2,39,83,siphon,4,1304
78,5000,2,39,84,noisy,5,568
79,5000,2,39,85,paint,6,528
80,5000,2,39,87,snobbery,4,693
81,5000,2,39,88,farmer,6,550
82,5000,2,39,89,shallot,7,402
83,5000,2,39,90,liquor,5,656
84,5000,2,39,91,unchristian,4,570
85,5000,2,39,92,homicide,5,1041
86,5000,2,39,93,juvenile,6,1260
87,5000,2,39,94,magnificent,5,1021
88,5000,2,39,95,moisture,7,833
89,5000,2,39,96,subscribe,5,1029
90,5000,2,39,97,canned,6,489
91,5000,2,39,98,producer,5,235
92,5000,2,39,99,perceive,4,8616
93,5000,2,39,100,investment,5,1386
94,5000,2,39,101,haul,6,550
95,5000,2,39,102,stepladder,5,2561
96,5000,2,39,103,ratty,6,1375
97,5000,2,39,104,bailiff,5,1397
98,5000,2,39,105,dock,6,821
99,5000,2,39,106,medication,5,880
100,5000,2,39,108,desalt,6,1298
101,5000,3,7,109,defang,5,1986
102,5000,3,7,110,coach,6,1048
103,5000,3,7,111,Scripture,5,734
104,5000,3,7,112,rendezvous,4,628
105,5000,3,7,113,sobriety,5,911
106,5000,3,7,114,rider,6,885
107,5000,3,7,115,loader,5,923
108,5000,3,7,116,ream,6,692
109,5000,3,7,117,pivot,5,1596
110,5000,3,7,118,faultless,4,735
111,5000,3,7,119,thieve,7,1807
112,5000,3,7,120,peril,5,1482
113,5000,3,7,121,incorruption,6,1191
114,5000,3,7,122,merit,5,580
115,5000,3,7,123,banter,5,862
116,5000,3,7,124,monorail,6,1134
117,5000,3,7,125,skill,6,1008
118,5000,3,7,126,bog,5,3020
119,5000,3,7,128,novelistic,5,1314
120,5000,3,7,129,weasel,6,732
121,5000,3,7,130,shifty,5,1607
122,5000,3,7,131,abroad,6,1612
123,5000,3,7,132,heft,7,1746
124,5000,3,7,133,bronchitis,5,1122
125,5000,3,7,134,excretion,5,1196
126,5000,3,7,135,goopy,5,949
127,5000,3,7,136,musty,6,1647
128,5000,3,7,138,oriental,4,1065
129,5000,3,7,139,inner,5,1504
130,5000,3,7,140,irregular,4,575
131,5000,3,7,141,engine,4,844
132,5000,3,7,142,progressivism,5,598
133,5000,3,7,143,underclothes,6,389
134,5000,3,7,144,potentially,5,468
135,5000,3,7,145,crustacean,4,1414
136,5000,3,7,146,despairing,5,656
137,5000,3,7,147,immunity,6,1408
138,5000,3,7,148,dorm,5,1650
139,5000,3,7,149,stink,6,1786
140,5000,3,7,150,chic,5,2249
141,5000,3,7,151,foursome,5,1671
142,5000,3,7,152,unseen,5,1813
143,5000,3,7,153,disarray,6,1823
144,5000,3,7,154,anaconda,5,2886
145,5000,3,7,155,kin,5,1598
146,5000,3,7,156,guru,5,3072
147,5000,3,7,157,salty,5,3818
148,5000,3,7,158,verse,6,1082
149,5000,3,7,159,sulk,5,443
150,5001,1,28,1,allergic,2,13443
151,5001,1,28,2,neutralism,2,5462
152,5001,1,28,3,luckless,6,7606
153,5001,1,28,4,pacifier,6,2734
154,5001,1,28,5,dispose,4,11131
155,5001,1,28,6,hyperbolic,1,4671
156,5001,1,28,7,mink,5,8619
157,5001,1,28,8,rue,2,4093
158,5001,1,28,9,smile,2,988
159,5001,1,28,10,glacier,2,2960
160,5001,1,28,11,prevail,3,12513
161,5001,1,28,12,history,3,8689
162,5001,1,28,13,telethon,6,7506
163,5001,1,28,14,octagon,2,11602
164,5001,1,28,15,diffuse,2,1881
165,5001,1,28,16,return,2,1603
166,5001,1,28,17,trapper,6,2834
167,5001,1,28,18,blat,2,2882
168,5001,1,28,20,starfish,6,6220
169,5001,1,28,21,moustache,6,5253
170,5001,1,28,22,full,6,9659
171,5001,1,28,23,appraisal,2,2634
172,5001,1,28,24,citrus,2,1713
173,5001,1,28,25,fable,2,13047
174,5001,1,28,27,duffel,2,1994
175,5001,1,28,28,tyranny,2,1402
176,5001,1,28,29,mast,2,3291
177,5001,1,28,32,title,2,4399
178,5001,1,28,33,infectious,5,3996
179,5001,1,28,34,ethnic,2,3447
180,5001,1,28,35,poisonous,5,25846
181,5001,1,28,36,lifetime,6,6620
182,5001,1,28,37,buttery,6,1336
183,5001,1,28,38,authority,2,2998
184,5001,1,28,39,craggy,2,2085
185,5001,1,28,40,reflect,6,6703
186,5001,1,28,41,brainy,6,1184
187,5001,1,28,42,grill,6,1577
188,5001,1,28,43,bearable,4,4593
189,5001,1,28,44,pedigree,2,5941
190,5001,1,28,45,unicycle,6,3956
191,5001,1,28,46,contain,3,2283
192,5001,1,28,47,sour,6,30560
193,5001,1,28,48,impossibility,6,3545
194,5001,1,28,49,happiness,6,534
195,5001,1,28,50,jerky,2,3597
196,5001,2,13,51,drafting,6,8794
197,5001,2,13,52,egregious,2,2824
198,5001,2,13,53,government,5,4583
199,5001,2,13,54,threshold,5,2234
200,5001,2,13,55,untimely,5,2200
201,5001,2,13,56,mysterious,5,1732
202,5001,2,13,57,stooge,2,2223
203,5001,2,13,58,bubonic,2,910
204,5001,2,13,59,welcome,6,5599
205,5001,2,13,60,corridor,2,2775
206,5001,2,13,61,ostracize,2,1327
207,5001,2,13,62,frankly,5,3534
208,5001,2,13,63,irretrievable,2,3067
209,5001,2,13,64,squadron,2,1310
210,5001,2,13,65,sat,2,1252
211,5001,2,13,66,womanizer,7,3449
212,5001,2,13,67,insight,6,4293
213,5001,2,13,68,choir,2,4624
214,5001,2,13,69,turnout,6,14640
215,5001,2,13,70,mice,6,5034
216,5001,2,13,72,perseverance,2,3357
217,5001,2,13,73,imperative,2,878
218,5001,2,13,74,hairpin,6,2926
219,5001,2,13,75,tote,3,3523
220,5001,2,13,76,gator,6,4063
221,5001,2,13,77,riser,6,1783
222,5001,2,13,78,experimental,6,17154
223,5001,2,13,79,conform,2,2994
224,5001,2,13,82,oath,2,2788
225,5001,2,13,83,planner,6,3039
226,5001,2,13,84,discordance,2,2858
227,5001,2,13,85,prosecutor,6,4142
228,5001,2,13,86,detection,6,3220
229,5001,2,13,87,flick,6,4306
230,5001,2,13,88,abstinence,2,2251
231,5001,2,13,89,loch,2,941
232,5001,2,13,90,billboard,6,3287
233,5001,2,13,91,cuisine,2,2242
234,5001,2,13,92,coconut,2,2570
235,5001,2,13,93,federal,6,3528
236,5001,2,13,95,questioning,5,1862
237,5001,2,13,96,precipitate,2,3040
238,5001,2,13,97,recommend,6,15005
239,5001,2,13,98,indiscrimination,6,2038
240,5001,2,13,99,agreeable,6,2658
241,5001,2,13,100,ledger,2,8460
242,5001,2,13,101,shorthand,6,3294
243,5001,2,13,102,morality,6,4943
244,5001,2,13,103,associate,6,3457
245,5001,2,13,104,seasonal,6,1968
246,5001,2,13,105,sunbeam,6,989
247,5002,1,5,1,innocence,1,4223
248,5002,1,5,2,stroke,4,4554
249,5002,1,5,3,snifter,NA,7422
250,5002,1,5,4,octane,1,2109
251,5002,1,5,5,atrophy,NA,2740
252,5002,1,5,6,mastiff,2,2608
253,5002,1,5,7,quip,1,4454
254,5002,1,5,8,tasteless,1,1870
255,5002,1,5,9,roulette,5,2888
256,5002,1,5,10,ire,NA,2618
257,5002,1,5,11,hock,3,2382
258,5002,1,5,12,dally,6,3212
259,5002,1,5,13,universalist,NA,2503
260,5002,1,5,14,screed,NA,2009
261,5002,1,5,15,talc,1,2684
262,5002,1,5,16,bearer,1,2041
263,5002,1,5,17,saunter,NA,2228
264,5002,1,5,18,jest,2,2396
265,5002,1,5,19,quasi,1,2541
266,5002,1,5,20,gladden,1,2647
267,5002,1,5,21,adder,1,2410
268,5002,1,5,22,despoil,1,2340
269,5002,1,5,23,hypodermic,1,2377
270,5002,1,5,24,insurrectionary,1,2892
271,5002,1,5,25,fetid,NA,1887
272,5002,1,5,26,barrack,2,2357
273,5002,1,5,28,drub,NA,1962
274,5002,1,5,29,phonics,5,3655
275,5002,1,5,30,exclude,3,2768
276,5002,1,5,31,furious,2,2574
277,5002,1,5,32,disencumber,NA,2477
278,5002,1,5,33,conk,1,7544
279,5002,1,5,34,haiku,1,1283
280,5002,1,5,35,effervesce,2,3643
281,5002,1,5,36,muff,6,5011
282,5002,1,5,38,schematize,NA,2901
283,5002,1,5,39,vindicate,5,2337
284,5002,1,5,40,asphalt,1,2320
285,5002,1,5,41,clemency,1,4542
286,5002,1,5,42,toboggan,1,1332
287,5002,1,5,43,emulsify,3,2620
288,5002,1,5,44,turbulence,4,2564
289,5002,1,5,45,serum,2,3772
290,5002,1,5,46,fabric,1,1992
291,5002,1,5,47,fir,2,3131
292,5002,1,5,48,politician,1,2287
293,5002,1,5,49,volition,1,2863
294,5002,1,5,50,imperceptible,NA,2401
295,5002,1,5,51,doggy,1,5765
296,5002,1,5,52,ambivalent,NA,2491
297,5002,1,5,53,flounce,1,2385
298,5002,1,5,54,canyon,3,3497
299,5002,1,5,55,able,1,1965
300,5002,1,5,56,expo,1,1790
301,5002,1,5,58,emanate,5,2413
302,5002,1,5,59,gelatinize,1,3751
303,5002,1,5,60,libertinism,NA,2000
304,5002,1,5,61,draggle,NA,2086
305,5002,1,5,62,sodden,1,2758
306,5002,1,5,63,concourse,1,1604
307,5002,1,5,65,tic,7,6267
308,5003,1,37,1,compensate,2,4465
309,5003,1,37,2,shaker,4,3234
310,5003,1,37,3,wariness,1,4021
311,5003,1,37,4,submit,2,2665
312,5003,1,37,5,regretful,2,5362
313,5003,1,37,6,wild,6,3453
314,5003,1,37,7,adorable,1,3549
315,5003,1,37,8,depth,2,3903
316,5003,1,37,9,baggage,4,3473
317,5003,1,37,10,tolerant,1,2417
318,5003,1,37,11,enamel,2,3300
319,5003,1,37,12,symphonic,5,3933
320,5003,1,37,13,lap,5,3741
321,5003,1,37,14,charismatic,1,2161
322,5003,1,37,15,reward,2,3639
323,5003,1,37,16,score,3,5289
324,5003,1,37,17,famine,2,2911
325,5003,1,37,18,gaga,7,2289
326,5003,1,37,19,onset,1,2680
327,5003,1,37,20,node,4,2547
328,5003,1,37,21,hate,2,3025
329,5003,1,37,22,cleave,6,3291
330,5003,1,37,23,tester,2,3075
331,5003,1,37,24,debug,1,2189
332,5003,1,37,26,fingernail,1,3986
333,5003,1,37,27,invariance,3,4256
334,5003,1,37,28,unnatural,2,2303
335,5003,1,37,29,brigade,1,2838
336,5003,1,37,30,holograph,1,2334
337,5003,1,37,31,information,2,1967
338,5003,1,37,33,everything,2,2526
339,5003,1,37,35,rash,7,3842
340,5003,1,37,36,speech,5,3528
341,5003,1,37,38,crocodile,2,2275
342,5003,1,37,39,probably,1,2491
343,5003,1,37,40,aromatic,5,3294
344,5003,1,37,41,painful,2,2504
345,5003,1,37,42,linker,5,4051
346,5003,1,37,43,medal,2,2058
347,5003,1,37,44,quack,7,1923
348,5003,1,37,45,single,2,3198
349,5003,1,37,46,unborn,2,3205
350,5003,1,37,47,tried,1,1945
351,5003,1,37,48,magician,2,3726
352,5003,1,37,49,zoom,7,1941
353,5003,1,37,50,steamboat,2,2347
354,5003,1,37,51,idyllic,3,3542
355,5003,2,7,52,weasel,5,5372
356,5003,2,7,53,shifty,5,3511
357,5003,2,7,54,verse,5,3160
358,5003,2,7,55,chic,6,2557
359,5003,2,7,56,progressivism,1,1785
360,5003,2,7,57,unseen,2,2682
361,5003,2,7,58,crustacean,1,2423
362,5003,2,7,59,abroad,4,1878
363,5003,2,7,60,stink,6,2748
364,5003,2,7,61,pivot,4,2064
365,5003,2,7,62,immunity,1,1846
366,5003,2,7,63,thieve,5,3026
367,5003,2,7,64,coach,4,2624
368,5003,2,7,65,despairing,2,2167
369,5003,2,7,66,sobriety,1,1964
370,5003,2,7,67,merit,3,2114
371,5003,2,7,70,sulk,6,2390
372,5003,2,7,71,disarray,1,1922
373,5003,2,7,72,musty,5,2780
374,5003,2,7,73,novelistic,2,1711
375,5003,2,7,74,rider,3,2678
376,5003,2,7,75,heft,6,2202
377,5003,2,7,76,monorail,2,3252
378,5003,2,7,77,Scripture,1,1512
379,5003,2,7,78,potentially,1,1955
380,5003,2,7,79,engine,3,3715
381,5003,2,7,80,banter,3,3743
382,5003,2,7,81,bog,5,1877
383,5003,2,7,82,underclothes,1,2371
384,5003,2,7,84,incorruption,1,1791
385,5003,2,7,85,rendezvous,5,3915
386,5003,2,7,86,dorm,6,1670
387,5003,2,7,87,foursome,2,2308
388,5003,2,7,88,skill,6,131567
389,5003,2,7,89,peril,6,2262
390,5003,2,7,90,anaconda,6,3538
391,5003,2,7,91,irregular,4,4617
392,5003,2,7,92,salty,5,2248
393,5003,2,7,93,excretion,3,3683
394,5003,2,7,94,faultless,1,2463
395,5003,2,7,95,ream,6,15089
396,5003,2,7,96,oriental,1,2293
397,5003,2,7,97,guru,5,4763
398,5003,2,7,98,kin,7,2640
399,5003,2,7,99,goopy,7,8019
400,5003,2,7,101,inner,4,17604
401,5003,2,7,102,bronchitis,1,2979
402,5003,2,7,103,loader,2,2390
403,5003,2,7,104,defang,3,2526
404,5004,1,12,1,briny,5,5077
405,5004,1,12,2,pathway,5,3190
406,5004,1,12,3,ulcerate,5,3601
407,5004,1,12,4,horror,4,3664
408,5004,1,12,5,paddywhack,5,5666
409,5004,1,12,6,poignancy,5,2400
410,5004,1,12,7,beech,4,4337
411,5004,1,12,8,misanthropic,3,2835
412,5004,1,12,9,extradite,4,3116
413,5004,1,12,10,unpeg,4,2495
414,5004,1,12,11,disconcert,2,4173
415,5004,1,12,12,undeceive,3,3538
416,5004,1,12,13,impious,NA,2795
417,5004,1,12,14,intersperse,NA,1639
418,5004,1,12,15,cinnamon,2,2702
419,5004,1,12,16,botulism,NA,2142
420,5004,1,12,17,scotch,1,4879
421,5004,1,12,18,caterwaul,NA,2292
422,5004,1,12,19,fillip,NA,2168
423,5004,1,12,20,cryptic,4,3267
424,5004,1,12,21,conga,3,3145
425,5004,1,12,22,lode,NA,1611
426,5004,1,12,24,impalpable,4,4303
427,5004,1,12,25,chariot,4,3803
428,5004,1,12,26,veto,2,3807
429,5004,1,12,27,twang,5,3201
430,5004,1,12,28,popinjay,NA,1849
431,5004,1,12,29,latent,NA,1581
432,5004,1,12,30,ruination,NA,1098
433,5004,1,12,31,biz,4,3130
434,5004,1,12,32,steal,5,2910
435,5004,1,12,33,Aurora,4,2266
436,5004,1,12,34,judo,NA,2215
437,5004,1,12,35,clad,NA,1233
438,5004,1,12,36,winnow,NA,1322
439,5004,1,12,38,orphanage,5,2613
440,5004,1,12,40,prelim,3,4159
441,5004,1,12,41,bid,2,3874
442,5004,1,12,42,pang,2,3108
443,5004,1,12,43,idiomatic,NA,1940
444,5004,1,12,44,apathy,NA,5235
445,5004,1,12,45,deice,NA,1316
446,5004,1,12,46,namely,4,10372
447,5004,1,12,47,satiny,NA,1888
448,5004,1,12,48,pimento,5,2957
449,5004,1,12,49,ethereal,NA,1923
450,5004,1,12,50,qualification,4,3386
451,5004,1,12,51,numerous,4,2334
452,5004,1,12,52,colander,5,3508
453,5004,1,12,53,vitrify,NA,2670
454,5004,1,12,54,supervene,NA,1897
455,5004,1,12,55,purloin,NA,1051
456,5004,1,12,56,croaker,5,3462
457,5004,1,12,57,stipend,4,2513
458,5004,1,12,58,endow,5,3281
459,5004,1,12,59,empathetic,3,3222
460,5004,1,12,60,litter,4,3709
461,5004,1,12,61,whop,NA,1983
462,5004,1,12,62,saintly,NA,1335
463,5004,1,12,63,astute,NA,1168
464,5004,1,12,64,ecstatic,5,2575
465,5004,1,12,66,simplex,NA,2482
466,5004,1,12,67,fauna,NA,2495
467,5004,1,12,68,dotage,NA,1080
468,5004,1,12,69,evidential,4,3240
469,5005,1,1,1,heresy,6,4262
470,5005,1,1,2,flog,4,3963
471,5005,1,1,3,patten,3,2080
472,5005,1,1,4,epoxy,2,3023
473,5005,1,1,5,Populism,5,2369
474,5005,1,1,6,flan,4,1195
475,5005,1,1,7,indolence,1,2177
476,5005,1,1,8,stipple,2,1563
477,5005,1,1,9,petticoat,2,1005
478,5005,1,1,10,viceroy,1,1744
479,5005,1,1,11,edict,3,1874
480,5005,1,1,12,sty,2,2143
481,5005,1,1,13,bouffant,2,1358
482,5005,1,1,14,cold,7,1715
483,5005,1,1,15,catsup,3,2010
484,5005,1,1,16,undefiled,3,1456
485,5005,1,1,17,nosh,2,1604
486,5005,1,1,18,salaam,2,1510
487,5005,1,1,19,hardly,7,1350
488,5005,1,1,20,latrine,4,1368
489,5005,1,1,21,wino,5,2499
490,5005,1,1,22,bayou,4,678
491,5005,1,1,23,aphid,1,1997
492,5005,1,1,24,truncheon,1,908
493,5005,1,1,25,beget,2,1648
494,5005,1,1,26,tweak,6,1658
495,5005,1,1,27,jump,6,930
496,5005,1,1,28,congenial,4,1224
497,5005,1,1,29,thatch,3,1232
498,5005,1,1,30,deinstitutionalize,6,2314
499,5005,1,1,31,interval,6,1241
500,5005,1,1,33,yowl,3,1795
501,5005,1,1,34,gob,3,797
502,5005,1,1,35,he-he,6,1643
503,5005,1,1,36,mosey,4,1036
504,5005,1,1,37,bard,3,995
505,5005,1,1,38,lackey,4,2504
506,5005,1,1,39,tip,6,1422
507,5005,1,1,40,divest,6,750
508,5005,1,1,41,pragmatism,7,1289
509,5005,1,1,42,driving,7,1103
510,5005,1,1,43,methadone,5,1910
511,5005,1,1,44,tosh,4,1086
512,5005,1,1,45,panorama,6,1544
513,5005,1,1,46,denigrate,5,982
514,5005,1,1,47,scanner,6,1260
515,5005,1,1,48,clairvoyance,5,2148
516,5005,1,1,49,magnolia,4,954
517,5005,1,1,51,live,6,1247
518,5005,1,1,52,useful,6,655
519,5005,1,1,53,empathy,7,1270
520,5005,1,1,54,biff,4,1166
521,5005,1,1,55,manslaughter,5,1090
522,5005,1,1,56,kirk,4,1230
523,5005,1,1,57,radio,5,1030
524,5005,1,1,58,carpal,3,1486
525,5005,1,1,59,invigorate,5,2074
526,5005,1,1,60,filly,4,811
527,5005,1,1,61,accuse,6,1126
528,5005,1,1,62,varnish,5,2096
529,5005,1,1,63,albatross,4,688
530,5005,1,1,64,scour,6,1548
531,5005,1,1,65,unabashed,3,1088
532,5005,1,1,66,Swede,4,888
533,5005,1,1,67,horsepower,5,1086
534,5005,1,1,70,spiel,4,1764
535,5005,1,1,71,pointer,5,1087
536,5006,1,5,1,skiddoo,6,3632
537,5006,1,5,2,real,NA,462
538,5006,1,5,3,load,2,879
539,5006,1,5,4,ecosystem,4,4309
540,5006,1,5,5,suckle,5,2082
541,5006,1,5,6,fortunate,2,1453
542,5006,1,5,7,late,2,2141
543,5006,1,5,8,incorrupt,2,1795
544,5006,1,5,9,affable,4,3054
545,5006,1,5,10,clue,2,1578
546,5006,1,5,11,tadpole,2,1867
547,5006,1,5,12,spongy,5,1847
548,5006,1,5,13,oregano,1,1964
549,5006,1,5,14,article,1,1507
550,5006,1,5,15,disapproval,1,1402
551,5006,1,5,17,underachieve,1,1752
552,5006,1,5,18,fatherly,3,1981
553,5006,1,5,19,shelve,1,1587
554,5006,1,5,20,cooperate,1,1072
555,5006,1,5,22,topless,2,2434
556,5006,1,5,23,boar,4,1862
557,5006,1,5,24,bang,6,1432
558,5006,1,5,25,concert,2,2102
559,5006,1,5,26,truck,2,1308
560,5006,1,5,27,therapist,1,1203
561,5006,1,5,28,mongoose,4,1863
562,5006,1,5,29,flamingo,2,2026
563,5006,1,5,30,dedication,1,1296
564,5006,1,5,31,musky,5,2691
565,5006,1,5,32,pitch,4,1385
566,5006,1,5,33,initial,1,1632
567,5006,1,5,34,quarry,3,1665
568,5006,1,5,36,weapon,3,3080
569,5006,1,5,38,gunpowder,2,2077
570,5006,1,5,39,broadcast,1,1503
571,5006,1,5,40,postmark,1,1188
572,5006,1,5,41,amusement,1,1053
573,5006,1,5,42,hoop,5,1312
574,5006,1,5,43,soapbox,1,1235
575,5006,1,5,44,melancholy,4,2015
576,5006,1,5,45,unsavory,4,2943
577,5006,1,5,46,profound,1,1587
578,5006,1,5,47,immolate,1,1056
579,5006,1,5,53,goofy,6,1384
580,5006,1,5,54,cherub,2,1345
581,5006,1,5,56,rickety,5,1502
582,5006,1,5,55,kickback,1,1038
583,5006,1,5,57,nothingness,1,1335
584,5006,1,5,58,heartburn,1,1042
585,5006,1,5,59,veracious,5,1776
586,5006,2,9,60,brown,2,4628
587,5006,2,9,61,thirty,2,1678
588,5006,2,9,62,executioner,2,1311
589,5006,2,9,63,childbirth,1,1128
590,5006,2,9,64,copy,1,1290
591,5006,2,9,65,loan,1,1079
592,5006,2,9,66,laughable,3,1600
593,5006,2,9,67,meteor,3,2778
594,5006,2,9,68,prominence,4,1961
595,5006,2,9,69,wedlock,1,1273
596,5006,2,9,70,pragmatics,1,817
597,5006,2,9,71,barbaric,1,967
598,5006,2,9,72,shiner,5,2128
599,5006,2,9,73,tulip,3,1878
600,5006,2,9,74,monsoon,4,2775
601,5006,2,9,75,skip,3,1996
602,5006,2,9,76,soil,1,1662
603,5006,2,9,77,sullen,4,1872
604,5006,2,9,79,foxhole,1,3288
605,5006,2,9,80,tamp,6,1847
606,5006,2,9,81,flaring,5,1504
607,5006,2,9,82,rig,2,1690
608,5006,2,9,83,coastline,1,1142
609,5006,2,9,84,habitual,1,903
610,5006,2,9,85,kingdom,1,1037
611,5006,2,9,87,agglomerate,2,3990
612,5006,2,9,88,mutinous,4,2333
613,5006,2,9,89,hornet,3,1458
614,5006,2,9,90,discernment,1,1461
615,5006,2,9,91,irremediable,1,1544
616,5006,2,9,92,repentant,1,1875
617,5006,2,9,93,spring,1,1435
618,5006,2,9,94,bonbon,4,2356
619,5006,2,9,95,rebate,1,1109
620,5006,2,9,96,plague,1,779
621,5006,2,9,97,gang,4,2412
622,5006,2,9,98,caramelize,1,998
623,5006,2,9,99,underhanded,1,917
624,5006,2,9,101,defense,1,1410
625,5006,2,9,102,independency,1,1076
626,5006,2,9,103,unsung,1,2492
627,5006,2,9,104,perishable,1,1013
628,5006,2,9,105,absent,1,1494
629,5006,2,9,106,tortoise,1,1010
630,5006,2,9,107,gory,5,1595
631,5006,2,9,109,effect,1,1860
632,5006,2,9,110,salve,4,1885
633,5007,1,17,1,sleaze,5,7999
634,5007,1,17,2,airborne,4,4316
635,5007,1,17,3,violinist,6,2364
636,5007,1,17,4,marital,5,2895
637,5007,1,17,5,saturate,3,2686
638,5007,1,17,6,institutionalism,7,2035
639,5007,1,17,7,wheeze,5,1676
640,5007,1,17,8,cashmere,4,2604
641,5007,1,17,9,bistro,5,1476
642,5007,1,17,10,pliable,3,1629
643,5007,1,17,11,anyone,5,2714
644,5007,1,17,12,unwished,6,2754
645,5007,1,17,13,cortex,3,1501
646,5007,1,17,14,bosom,NA,1511
647,5007,1,17,15,accommodation,7,2887
648,5007,1,17,16,issue,6,2964
649,5007,1,17,17,strait,5,2719
650,5007,1,17,18,freighter,3,2964
651,5007,1,17,19,mike,6,2080
652,5007,1,17,20,length,5,1965
653,5007,1,17,21,unduly,2,2583
654,5007,1,17,22,supersede,3,3283
655,5007,1,17,23,equality,7,2173
656,5007,1,17,24,squeaky,4,2742
657,5007,1,17,25,provision,7,3583
658,5007,1,17,27,worsen,4,2009
659,5007,1,17,28,persuade,3,3539
660,5007,1,17,29,impersonalize,6,1709
661,5007,1,17,31,quieten,5,1647
662,5007,1,17,32,obliteration,4,1288
663,5007,1,17,33,tic,3,2389
664,5007,1,17,34,shrapnel,5,1418
665,5007,1,17,35,hammock,6,2984
666,5007,1,17,36,seeing,5,1738
667,5007,1,17,37,cushion,4,1816
668,5007,1,17,38,chum,7,1445
669,5007,1,17,39,outrage,6,1314
670,5007,1,17,40,athletic,7,2069
671,5007,1,17,41,elder,6,2847
672,5007,1,17,42,coke,4,1551
673,5007,1,17,43,rob,5,3604
674,5007,1,17,44,resist,3,3198
675,5007,1,17,46,heretic,4,4277
676,5007,1,17,47,hovercraft,3,3609
677,5007,1,17,48,recruitment,5,1476
678,5007,1,17,50,knot,3,2073
679,5008,1,11,1,scurry,7,1383
680,5008,1,11,2,lobe,5,1788
681,5008,1,11,3,feat,2,1619
682,5008,1,11,4,impassion,1,1597
683,5008,1,11,5,goulash,6,1396
684,5008,1,11,6,cardboard,4,1604
685,5008,1,11,7,cub,2,3045
686,5008,1,11,8,indeterminate,1,1820
687,5008,1,11,9,thrash,6,1748
688,5008,1,11,10,mooch,7,1070
689,5008,1,11,11,prompt,4,1643
690,5008,1,11,12,shooter,3,1940
691,5008,1,11,13,wolf,1,1220
692,5008,1,11,14,fragmentation,3,1829
693,5008,1,11,15,manipulative,1,1484
694,5008,1,11,16,videotape,3,1524
695,5008,1,11,17,brunch,4,1692
696,5008,1,11,18,expect,1,1508
697,5008,1,11,19,sanatorium,3,1876
698,5008,1,11,20,horrify,4,2084
699,5008,1,11,21,barbed,5,2492
700,5008,1,11,22,rigorous,2,4820
701,5008,1,11,23,bonus,1,1300
702,5008,1,11,24,spunk,7,1751
703,5008,1,11,25,ago,1,1387
704,5008,1,11,26,condor,2,1854
705,5008,1,11,27,destitute,4,2020
706,5008,1,11,28,innovation,1,1675
707,5008,1,11,29,total,4,1603
708,5008,1,11,31,fleck,7,1621
709,5008,1,11,32,perpetrator,4,1404
710,5008,1,11,33,underpants,3,1852
711,5008,1,11,34,summon,4,1428
712,5008,1,11,35,antagonist,2,1316
713,5008,1,11,37,parasite,5,1356
714,5008,1,11,38,skylight,4,1084
715,5008,1,11,41,nudity,5,1708
716,5008,1,11,42,metric,2,1371
717,5008,1,11,43,cornfield,3,887
718,5008,1,11,44,coax,5,1602
719,5008,1,11,45,tape,2,1187
720,5008,1,11,46,kite,3,1156
721,5008,1,11,47,deformed,4,966
722,5008,1,11,48,learning,1,1699
723,5008,1,11,49,mwah,7,948
724,5008,1,11,50,bigotry,2,1804
725,5008,1,11,51,entangle,5,1340
726,5008,1,11,52,chime,7,1284
727,5008,1,11,53,weightless,3,1035
728,5008,2,18,54,unequivocally,3,2193
729,5008,2,18,55,oblivious,2,1020
730,5008,2,18,56,bulldoze,5,2212
731,5008,2,18,57,individualist,1,1172
732,5008,2,18,58,accordance,3,1124
733,5008,2,18,59,rectum,4,1799
734,5008,2,18,60,casserole,5,1116
735,5008,2,18,61,gender,2,1682
736,5008,2,18,62,squeamish,7,1640
737,5008,2,18,63,resolution,1,1796
738,5008,2,18,64,seemly,5,1203
739,5008,2,18,65,marketable,1,1531
740,5008,2,18,66,saucer,2,1108
741,5008,2,18,67,grail,4,1204
742,5008,2,18,68,chump,6,1277
743,5008,2,18,73,nappy,7,1483
744,5008,2,18,74,leprosy,2,2342
745,5008,2,18,75,soot,7,1212
746,5008,2,18,76,strangle,5,1348
747,5008,2,18,77,equilibrium,2,2211
748,5008,2,18,78,lollipop,4,1155
749,5008,2,18,79,Tartarus,1,1420
750,5008,2,18,80,it,1,1044
751,5008,2,18,81,rock,2,1690
752,5008,2,18,82,virus,3,1003
753,5008,2,18,83,conjoin,5,1830
754,5008,2,18,84,unzip,3,1356
755,5008,2,18,85,mortify,1,1900
756,5008,2,18,86,cushy,7,1223
757,5008,2,18,87,mild,2,1460
758,5008,2,18,88,shrew,6,1115
759,5008,2,18,89,electrocute,2,1579
760,5008,2,18,90,pry,7,2581
761,5008,2,18,91,prefix,1,1875
762,5008,2,18,92,heron,4,1119
763,5008,2,18,93,whelp,6,1116
764,5008,2,18,94,tracing,2,1219
765,5008,2,18,95,cosmology,1,1059
766,5008,2,18,96,floater,3,1284
767,5008,2,18,97,disengage,3,1188
768,5008,2,18,98,slicker,6,1348
769,5008,2,18,99,freshen,3,1204
770,5008,2,18,100,howl,5,1780
771,5008,2,18,101,handbag,4,1796
772,5008,2,18,102,worthy,3,1396
773,5008,2,18,103,outset,3,1244
774,5008,3,26,104,minimum,5,1552
775,5008,3,26,105,transpire,2,1724
776,5008,3,26,106,side,1,1295
777,5008,3,26,107,husk,6,1231
778,5008,3,26,108,sequin,6,1851
779,5008,3,26,109,alkaline,4,1036
780,5008,3,26,110,refine,2,1252
781,5008,3,26,111,radial,2,2004
782,5008,3,26,112,comfortable,2,1092
783,5008,3,26,113,exult,6,1403
784,5008,3,26,114,Utopia,3,1347
785,5008,3,26,115,telephone,2,1365
786,5008,3,26,116,scamp,7,1203
787,5008,3,26,117,oxen,6,1939
788,5008,3,26,118,sounding,1,1148
789,5008,3,26,119,grazing,5,1132
790,5008,3,26,120,occur,4,1404
791,5008,3,26,121,typist,2,2170
792,5008,3,26,124,auntie,5,1275
793,5008,3,26,125,jaw,6,1235
794,5008,3,26,126,die,1,1199
795,5008,3,26,127,hinge,5,1492
796,5008,3,26,128,petal,4,1100
797,5008,3,26,129,butter,1,1428
798,5008,3,26,130,susceptible,3,1030
799,5008,3,26,131,importance,1,1267
800,5008,3,26,132,ether,5,1731
801,5008,3,26,133,bazaar,7,2603
802,5008,3,26,134,cite,4,1078
803,5008,3,26,135,bracelet,2,1003
804,5008,3,26,136,acetify,1,1652
805,5008,3,26,137,ghoul,6,1531
806,5008,3,26,138,construct,1,1051
807,5008,3,26,139,fruitful,4,2371
808,5008,3,26,140,retiring,1,1322
809,5008,3,26,141,prescribe,2,1028
810,5008,3,26,143,mason,2,1572
811,5008,3,26,144,neon,5,1836
812,5008,3,26,145,poise,6,1379
813,5008,3,26,146,unhitch,1,1499
814,5008,3,26,147,delusive,5,1395
815,5008,3,26,148,ladle,2,979
816,5008,3,26,149,covert,5,1251
817,5008,3,26,150,mount,4,1316
818,5008,3,26,152,infancy,5,1276
819,5008,3,26,153,blameless,2,1027
820,5008,3,26,154,smarten,1,1119
821,5008,3,26,155,pur,7,1204
822,5008,3,26,156,rubbery,6,1379
823,5009,1,8,1,projector,5,3542
824,5009,1,8,2,disarticulate,2,3936
825,5009,1,8,3,monotony,2,2403
826,5009,1,8,4,copper,2,2266
827,5009,1,8,5,versus,3,2180
828,5009,1,8,6,salvage,3,2463
829,5009,1,8,7,renounce,4,2250
830,5009,1,8,8,again,2,4289
831,5009,1,8,9,ridicule,2,2842
832,5009,1,8,10,irrelative,2,2527
833,5009,1,8,11,novelty,3,2073
834,5009,1,8,12,immunize,4,3980
835,5009,1,8,13,cry,5,3134
836,5009,1,8,14,brooding,4,1884
837,5009,1,8,15,spotless,4,3480
838,5009,1,8,16,placement,3,2138
839,5009,1,8,17,mutate,2,2126
840,5009,1,8,18,enhance,3,1849
841,5009,1,8,19,eerie,5,2345
842,5009,1,8,20,scruff,5,2255
843,5009,1,8,22,Biblical,2,2259
844,5009,1,8,23,excusatory,3,1691
845,5009,1,8,24,reassure,3,1811
846,5009,1,8,25,anchovy,2,4730
847,5009,1,8,28,dormant,4,2723
848,5009,1,8,29,unsubstantiated,2,1717
849,5009,1,8,30,barbarian,3,3469
850,5009,1,8,31,tub,2,2075
851,5009,1,8,32,gamma,1,2300
852,5009,1,8,33,perilous,4,1968
853,5009,1,8,34,loafer,3,1960
854,5009,1,8,35,sulky,4,2000
855,5009,1,8,36,heighten,2,2971
856,5009,1,8,37,kinetic,3,3631
857,5009,1,8,38,latter,2,1954
858,5009,1,8,39,defeat,2,2088
859,5009,1,8,40,fox,3,2246
860,5009,1,8,41,stint,5,2043
861,5009,1,8,42,hormone,2,2307
862,5009,1,8,43,wedding,2,3266
863,5009,1,8,44,pouf,6,1955
864,5009,1,8,46,underestimate,2,2028
865,5009,1,8,47,skim,4,2486
866,5009,1,8,48,wispy,6,2196
867,5010,1,12,1,lode,NA,6562
868,5010,1,12,2,conga,NA,4660
869,5010,1,12,3,latent,1,5213
870,5010,1,12,4,ethereal,6,6231
871,5010,1,12,5,scotch,1,5187
872,5010,1,12,6,veto,2,3357
873,5010,1,12,7,pathway,7,2785
874,5010,1,12,8,caterwaul,NA,2488
875,5010,1,12,9,ecstatic,5,3052
876,5010,1,12,10,clad,1,3154
877,5010,1,12,11,croaker,2,2745
878,5010,1,12,12,misanthropic,1,4534
879,5010,1,12,13,vitrify,NA,1931
880,5010,1,12,14,briny,4,2517
881,5010,1,12,15,ulcerate,NA,2308
882,5010,1,12,16,extradite,5,3073
883,5010,1,12,17,simplex,NA,4405
884,5010,1,12,18,numerous,7,3190
885,5010,1,12,19,litter,4,6124
886,5010,1,12,20,supervene,NA,2306
887,5010,1,12,21,popinjay,NA,1212
888,5010,1,12,22,impalpable,3,4510
889,5010,1,12,23,chariot,5,3753
890,5010,1,12,25,colander,1,3821
891,5010,1,12,27,intersperse,5,2466
892,5010,1,12,28,ruination,NA,3593
893,5010,1,12,29,prelim,6,2936
894,5010,1,12,30,fillip,NA,2420
895,5010,1,12,31,horror,1,3701
896,5010,1,12,32,deice,NA,1485
897,5010,1,12,33,botulism,NA,1650
898,5010,1,12,34,apathy,3,3891
899,5010,1,12,35,pang,NA,2514
900,5010,1,12,38,steal,1,3738
901,5010,1,12,39,cinnamon,2,3205
902,5010,1,12,40,fauna,1,3590
903,5010,1,12,41,winnow,NA,1969
904,5010,1,12,42,endow,NA,1549
905,5010,1,12,43,whop,NA,1128
906,5010,1,12,44,orphanage,5,4262
907,5010,1,12,45,purloin,NA,1449
908,5010,1,12,46,cryptic,6,3341
909,5010,1,12,47,paddywhack,NA,2116
910,5010,1,12,48,Aurora,NA,1285
911,5010,1,12,49,beech,NA,1365
912,5010,1,12,50,impious,NA,968
913,5010,1,12,51,satiny,NA,2282
914,5010,1,12,52,idiomatic,NA,1385
915,5010,1,12,53,saintly,7,2534
916,5010,1,12,54,qualification,7,1868
917,5010,1,12,55,poignancy,7,1220
918,5010,1,12,56,stipend,2,4080
919,5010,1,12,57,unpeg,NA,2800
920,5010,1,12,58,twang,7,2419
921,5010,1,12,59,evidential,7,2160
922,5010,1,12,60,astute,5,7166
923,5010,1,12,61,dotage,NA,1749
924,5010,1,12,62,judo,NA,895
925,5010,1,12,63,empathetic,7,3511
926,5010,1,12,64,biz,NA,2856
927,5010,1,12,65,disconcert,NA,1547
928,5010,1,12,66,pimento,NA,1354
929,5010,1,12,67,namely,7,2153
930,5010,1,12,68,bid,2,3893
931,5010,1,12,69,undeceive,7,1978
932,5011,1,8,1,refute,5,13187
933,5011,1,8,2,mores,5,2861
934,5011,1,8,3,voracious,4,9343
935,5011,1,8,4,espy,5,7612
936,5011,1,8,5,township,1,4948
937,5011,1,8,6,obscene,1,486
938,5011,1,8,7,sifter,6,7595
939,5011,1,8,8,sojourn,4,7595
940,5011,1,8,9,lope,6,3524
941,5011,1,8,10,grippe,6,7111
942,5011,1,8,11,watershed,1,4598
943,5011,1,8,12,pacifism,2,11893
944,5011,1,8,13,hangar,5,4183
945,5011,1,8,14,dong,7,7521
946,5011,1,8,15,hematoma,2,7791
947,5011,1,8,16,nitrify,4,7316
948,5011,1,8,17,extensible,5,6311
949,5011,1,8,18,assailant,3,4864
950,5011,1,8,19,remit,2,4569
951,5011,1,8,20,whippoorwill,7,8884
952,5011,1,8,21,evangelicalism,1,8392
953,5011,1,8,23,thigh,2,11260
954,5011,1,8,24,bereavement,3,5758
955,5011,1,8,25,macaw,7,3687
956,5011,1,8,26,graft,1,4364
957,5011,1,8,27,per,1,5164
958,5011,1,8,28,pearl,3,5687
959,5011,1,8,30,counterpart,2,11852
960,5011,1,8,31,emblazon,3,7026
961,5011,1,8,32,dread,4,12708
962,5011,1,8,33,liege,3,11140
963,5011,1,8,34,globular,7,4497
964,5011,1,8,35,conspirator,5,3642
965,5011,1,8,36,applaud,6,6598
966,5011,1,8,37,syndicate,1,6734
967,5011,1,8,38,uncertain,2,3708
968,5011,1,8,39,abscess,2,3857
969,5011,1,8,40,sadistic,3,6394
970,5011,1,8,41,carafe,3,6400
971,5011,1,8,42,joggle,5,4349
972,5011,1,8,43,maternity,1,8957
973,5011,1,8,44,ebb,6,5880
974,5011,1,8,45,preen,6,3303
975,5011,1,8,46,mango,2,7284
976,5011,1,8,47,quaff,5,3216
977,5011,1,8,48,query,3,4107
978,5011,1,8,49,flue,5,5334
979,5011,1,8,50,fructify,3,7232
980,5011,1,8,52,ceramic,4,5498
981,5011,1,8,53,upholstery,1,3763
982,5011,1,8,54,enamor,2,7097
983,5011,1,8,55,feline,6,3012
984,5011,1,8,57,protective,1,3859
985,5011,1,8,58,pollutant,3,7442
986,5012,1,3,1,thatch,4,13386
987,5012,1,3,2,Populism,4,10058
988,5012,1,3,3,blamable,2,19026
989,5012,1,3,4,bit,4,4876
990,5012,1,3,5,eave,NA,5470
991,5012,1,3,6,anecdote,3,5641
992,5012,1,3,7,control,4,3196
993,5012,1,3,8,thigh,5,3946
994,5012,1,3,9,nix,4,1832
995,5012,1,3,10,feline,6,1970
996,5012,1,3,11,concourse,4,2285
997,5012,1,3,12,mizzle,NA,2091
998,5012,1,3,13,adrenaline,5,2132
999,5012,1,3,14,revenge,5,3378
1000,5012,1,3,15,genital,4,2200
1001,5012,1,3,16,evidential,3,4396
1002,5012,1,3,17,manslaughter,4,4477
1003,5012,1,3,18,ignorance,5,4030
1004,5012,1,3,19,paternal,4,4287
1005,5012,1,3,20,interpreter,4,3674
1006,5012,1,3,21,thruster,3,2609
1007,5012,1,3,22,immortality,6,3138
1008,5012,1,3,24,herby,3,5321
1009,5012,1,3,25,veto,5,2410
1010,5012,1,3,27,libelous,NA,1863
1011,5012,1,3,28,undeceive,4,4987
1012,5012,1,3,29,dehydration,4,1932
1013,5012,1,3,30,damned,5,1874
1014,5012,1,3,32,shin,4,4453
1015,5012,1,3,33,champagne,6,1752
1016,5012,1,3,34,quince,3,2897
1017,5012,1,3,35,gore,4,2011
1018,5012,1,3,36,transmute,4,1797
1019,5012,1,3,37,bruise,4,847
1020,5012,1,3,39,cold,4,7740
1021,5012,1,3,40,invigorate,4,2588
1022,5012,1,3,41,namely,4,1118
1023,5012,1,3,42,bushel,3,5099
1024,5012,1,3,43,litter,4,1982
1025,5012,1,3,44,dong,4,1930
1026,5012,1,3,45,briny,4,794
1027,5012,2,13,46,gator,5,3208
1028,5012,2,13,47,sunbeam,4,2209
1029,5012,2,13,48,bubonic,5,6372
1030,5012,2,13,49,federal,5,2493
1031,5012,2,13,50,discordance,4,2195
1032,5012,2,13,51,recommend,4,2213
1033,5012,2,13,52,cuisine,6,2319
1034,5012,2,13,53,mice,4,1172
1035,5012,2,13,54,drafting,5,2811
1036,5012,2,13,55,mysterious,4,896667
1037,5012,2,13,56,abstinence,3,4946
1038,5012,2,13,57,choir,4,1453
1039,5012,2,13,58,sat,2,1979
1040,5012,2,13,59,seasonal,5,1604
1041,5012,2,13,60,loch,5,1991
1042,5012,2,13,62,frankly,4,5038
1043,5012,2,13,63,welcome,4,1030
1044,5012,2,13,64,threshold,3,2061
1045,5012,2,13,65,planner,3,1515
1046,5012,2,13,66,associate,4,2431
1047,5012,2,13,67,insight,4,879
1048,5012,2,13,68,government,4,2557
1049,5012,2,13,69,womanizer,4,2379
1050,5012,2,13,70,experimental,5,1694
1051,5012,2,13,71,indiscrimination,4,1922
1052,5012,2,13,72,egregious,4,1277
1053,5012,2,13,73,conform,2,2716
1054,5012,2,13,74,irretrievable,3,6930
1055,5012,2,13,75,ostracize,3,3698
1056,5012,2,13,76,corridor,4,2194
1057,5012,2,13,77,untimely,4,1186
1058,5012,2,13,78,oath,5,2170
1059,5012,2,13,79,shorthand,4,1523
1060,5012,2,13,81,riser,4,1580
1061,5012,2,13,82,turnout,4,789
1062,5012,2,13,83,agreeable,4,1007
1063,5012,2,13,84,detection,4,754
1064,5012,2,13,85,precipitate,4,816
1065,5012,2,13,86,coconut,5,1610
1066,5012,2,13,87,flick,4,2002
1067,5012,2,13,88,squadron,4,685
1068,5012,2,13,89,perseverance,4,743
1069,5012,2,13,90,imperative,4,473
1070,5012,2,13,91,ledger,4,2414
1071,5012,2,13,92,morality,6,1673
1072,5012,2,13,94,hairpin,3,2145
1073,5012,2,13,96,tote,3,2064
1074,5012,2,13,97,billboard,5,2111
1075,5012,2,13,98,questioning,4,1289
1076,5012,2,13,99,stooge,3,2246
1077,5012,2,13,100,prosecutor,4,1615
1078,5013,1,32,1,euphonic,7,13806
1079,5013,1,32,2,altruism,3,10483
1080,5013,1,32,3,crematory,6,11430
1081,5013,1,32,4,landed,7,5440
1082,5013,1,32,5,infiltration,6,5446
1083,5013,1,32,6,treat,4,7478
1084,5013,1,32,7,unanimity,5,12589
1085,5013,1,32,8,aware,2,8486
1086,5013,1,32,9,tempest,2,9718
1087,5013,1,32,10,blessing,3,5972
1088,5013,1,32,11,ninny,1,4790
1089,5013,1,32,12,duo,5,5437
1090,5013,1,32,13,often,1,19766
1091,5013,1,32,14,clack,7,2078
1092,5013,1,32,15,employ,2,2167
1093,5013,1,32,16,static,6,3580
1094,5013,1,32,17,tofu,1,6492
1095,5013,1,32,18,ice,5,4972
1096,5013,1,32,19,padding,2,6933
1097,5013,1,32,20,session,1,3860
1098,5013,1,32,21,luxuriate,5,6310
1099,5013,1,32,22,pushy,6,4334
1100,5013,1,32,23,impudence,2,2994
1101,5013,1,32,24,moving,5,4395
1102,5013,1,32,25,rump,6,2578
1103,5013,1,32,27,filling,6,5557
1104,5013,1,32,28,sweetie,2,2318
1105,5013,1,32,29,deny,1,2349
1106,5013,1,32,30,raider,6,4484
1107,5013,1,32,31,disrespectful,6,4100
1108,5013,1,32,32,calf,1,3772
1109,5013,1,32,34,vamp,2,4575
1110,5013,1,32,35,commonplace,7,2517
1111,5013,1,32,37,snag,7,2116
1112,5013,1,32,38,facial,5,6621
1113,5013,1,32,39,limey,1,2339
1114,5013,1,32,40,adjoin,6,3229
1115,5013,1,32,41,foggy,5,3654
1116,5013,1,32,43,zeal,3,4356
1117,5013,1,32,44,space,6,2140
1118,5013,1,32,45,darn,1,3982
1119,5013,1,32,46,dimple,2,4916
1120,5013,1,32,47,intrinsic,1,5540
1121,5013,1,32,48,continually,3,2654
1122,5013,1,32,49,primal,2,3167
1123,5013,1,32,50,beau,1,8302
1124,5013,2,1,51,useful,7,4492
1125,5013,2,1,52,greyhound,7,3391
1126,5013,2,1,53,unify,6,2182
1127,5013,2,1,54,enigmatic,3,6002
1128,5013,2,1,55,chatter,7,2323
1129,5013,2,1,56,airfield,7,3384
1130,5013,2,1,57,abscess,4,8276
1131,5013,2,1,58,pash,1,1766
1132,5013,2,1,59,clamber,6,2462
1133,5013,2,1,60,liege,1,10293
1134,5013,2,1,61,bid,2,2558
1135,5013,2,1,62,bard,2,3570
1136,5013,2,1,63,vindicate,2,35882
1137,5013,2,1,64,swath,4,2005
1138,5013,2,1,65,madam,2,4121
1139,5013,2,1,66,nipple,3,4383
1140,5013,2,1,67,steal,4,4374
1141,5013,2,1,68,spiel,1,3894
1142,5013,2,1,69,ecstatic,5,3380
1143,5013,2,1,70,coated,6,5517
1144,5013,2,1,71,pertain,5,8483
1145,5013,2,1,72,overall,6,4613
1146,5013,2,1,73,dread,5,3396
1147,5013,2,1,74,stockyard,7,2071
1148,5013,2,1,75,plash,6,2530
1149,5013,2,1,76,peeper,6,3365
1150,5013,2,1,77,fail,2,1773
1151,5013,2,1,78,scanner,5,2182
1152,5013,2,1,79,cinnamon,1,2996
1153,5013,2,1,80,hemp,2,3590
1154,5013,2,1,82,maternity,5,3979
1155,5013,2,1,83,asphyxiate,2,5055
1156,5013,2,1,85,ungovernable,1,4627
1157,5013,2,1,87,tweak,5,2436
1158,5013,2,1,89,token,2,3476
1159,5013,2,1,90,emblem,3,3492
1160,5013,2,1,91,intensive,5,1870
1161,5013,2,1,92,exclude,7,2282
1162,5013,2,1,93,frap,2,3654
1163,5013,2,1,94,spade,2,4476
1164,5013,2,1,95,foreman,4,4854
1165,5013,2,1,96,custodial,3,4670
1166,5013,3,38,97,gobble,6,3322
1167,5013,3,38,98,snippy,5,4737
1168,5013,3,38,99,informative,3,6057
1169,5013,3,38,100,haughty,1,9496
1170,5013,3,38,101,shaking,7,2190
1171,5013,3,38,102,tetanus,1,2286
1172,5013,3,38,103,subprime,2,3544
1173,5013,3,38,104,evident,2,13679
1174,5013,3,38,105,inartistic,4,2926
1175,5013,3,38,106,meddlesome,3,2822
1176,5013,3,38,107,easel,1,1934
1177,5013,3,38,108,mum,2,3175
1178,5013,3,38,109,painstaking,6,3356
1179,5013,3,38,110,invasive,5,1760
1180,5013,3,38,111,divine,2,5324
1181,5013,3,38,112,baggy,4,10443
1182,5013,3,38,113,sinker,6,3564
1183,5013,3,38,114,rationalism,3,3078
1184,5013,3,38,115,spellbound,7,2188
1185,5013,3,38,116,prodigious,5,3621
1186,5013,3,38,117,behoof,1,3084
1187,5013,3,38,118,magnesium,1,5755
1188,5013,3,38,119,scoreboard,7,2133
1189,5013,3,38,120,rhapsody,1,6988
1190,5013,3,38,121,liquid,4,3767
1191,5013,3,38,122,porridge,5,2967
1192,5013,3,38,123,conversation,3,3307
1193,5013,3,38,124,deride,1,3759
1194,5013,3,38,126,lapel,1,4870
1195,5013,3,38,127,arose,6,2326
1196,5013,3,38,128,homemade,7,2063
1197,5013,3,38,129,modernist,3,5153
1198,5013,3,38,130,trill,5,4900
1199,5013,3,38,131,forehead,6,3207
1200,5013,3,38,132,wildfire,6,2818
1201,5013,3,38,133,fan,4,4838
1202,5013,3,38,134,Guinea,1,1874
1203,5013,3,38,137,zucchini,1,2364
1204,5013,3,38,138,unpack,5,3636
1205,5013,3,38,139,warm,2,8557
1206,5013,3,38,140,brightness,5,3582
1207,5013,3,38,141,rehash,3,3549
1208,5013,3,38,142,competency,2,3521
1209,5013,3,38,143,decide,2,2677
1210,5013,3,38,144,vat,1,5276
1211,5013,3,38,145,bloomer,6,2461
1212,5014,1,10,1,cognizable,1,3982
1213,5014,1,10,2,shrike,3,4080
1214,5014,1,10,3,lancer,4,4856
1215,5014,1,10,4,convenience,1,2716
1216,5014,1,10,5,pneuma,5,2459
1217,5014,1,10,6,yammer,7,2984
1218,5014,1,10,7,solemnity,1,4584
1219,5014,1,10,8,visionary,2,4129
1220,5014,1,10,9,uncouth,1,3372
1221,5014,1,10,10,commie,2,2474
1222,5014,1,10,11,anvil,2,2791
1223,5014,1,10,12,emboss,1,2276
1224,5014,1,10,13,whiten,2,2544
1225,5014,1,10,14,directory,1,2645
1226,5014,1,10,15,understatement,1,1214
1227,5014,1,10,16,cordial,2,1752
1228,5014,1,10,17,sprocket,4,2456
1229,5014,1,10,18,proffer,1,2732
1230,5014,1,10,19,custodial,1,2041
1231,5014,1,10,20,revenge,2,1852
1232,5014,1,10,21,flush,7,3312
1233,5014,1,10,22,cloying,6,15259
1234,5014,1,10,23,alphabetical,3,2224
1235,5014,1,10,25,flimflam,6,2023
1236,5014,1,10,26,urbane,4,1907
1237,5014,1,10,27,neoconservatism,1,2077
1238,5014,1,10,29,descale,3,2029
1239,5014,1,10,30,brine,4,2471
1240,5014,1,10,31,token,3,2108
1241,5014,1,10,32,morose,1,1905
1242,5014,1,10,33,torrent,2,1719
1243,5014,1,10,34,gargoyle,3,2373
1244,5014,1,10,35,henna,2,2365
1245,5014,1,10,37,cancan,7,3407
1246,5014,1,10,38,lei,4,2772
1247,5014,1,10,39,enthrall,3,1754
1248,5014,1,10,40,gramophone,4,1906
1249,5014,1,10,41,scull,2,2697
1250,5014,1,10,42,irreproducible,1,2404
1251,5014,1,10,43,indivertible,1,2157
1252,5014,1,10,44,molt,2,1797
1253,5014,1,10,45,bevel,2,3263
1254,5014,1,10,46,champagne,1,2631
1255,5014,1,10,47,martyrdom,1,2053
1256,5014,1,10,48,omnipresent,1,1138
1257,5014,1,10,49,decry,1,1402
1258,5014,1,10,50,civilly,1,1000
1259,5014,1,10,51,tar,5,1667
1260,5014,1,10,52,unheralded,1,2105
1261,5014,1,10,53,demonstrate,1,1712
1262,5014,1,10,54,bleep,7,2212
1263,5014,1,10,55,piffle,6,2383
1264,5014,1,10,57,overall,3,3062
1265,5014,1,10,58,staunch,5,2113
1266,5014,1,10,59,purgatory,2,2094
1267,5014,1,10,60,pomade,2,2057
1268,5014,1,10,61,soulless,1,1741
1269,5014,1,10,62,swath,5,2315
1270,5014,1,10,63,safflower,2,1797
1271,5014,1,10,64,snore,6,2431
1272,5014,1,10,65,lira,2,1921
1273,5014,1,10,66,idealism,1,1797
1274,5014,1,10,67,joviality,1,1641
1275,5014,1,10,68,dappled,4,3188
1276,5014,1,10,69,course,3,1432
1277,5014,1,10,70,aftermath,1,1804
1278,5015,1,29,1,lukewarm,5,8974
1279,5015,1,29,2,aquamarine,6,6163
1280,5015,1,29,3,infective,4,7473
1281,5015,1,29,4,ruff,7,3109
1282,5015,1,29,5,lame,7,2487
1283,5015,1,29,6,interviewer,4,5372
1284,5015,1,29,7,craze,6,3082
1285,5015,1,29,8,blazer,5,3698
1286,5015,1,29,9,vaginal,5,2717
1287,5015,1,29,10,south,7,4854
1288,5015,1,29,11,dance,7,4202
1289,5015,1,29,12,dispossess,2,3126
1290,5015,1,29,13,grippe,1,2895
1291,5015,1,29,14,emerge,5,2365
1292,5015,1,29,15,flux,4,3756
1293,5015,1,29,16,phantom,7,2169
1294,5015,1,29,17,commingle,2,5485
1295,5015,1,29,18,city,7,3979
1296,5015,1,29,19,tell,7,1568
1297,5015,1,29,20,rev,4,3193
1298,5015,1,29,21,function,4,1948
1299,5015,1,29,22,reflex,5,4369
1300,5015,1,29,23,light,7,2328
1301,5015,1,29,25,eucalyptus,1,5158
1302,5015,1,29,26,authorize,5,3523
1303,5015,1,29,27,harassment,2,4247
1304,5015,1,29,28,dig,7,2091
1305,5015,1,29,30,impress,5,4317
1306,5015,1,29,31,whom,7,3790
1307,5015,1,29,32,hit,7,1140
1308,5015,1,29,33,stub,7,1643
1309,5015,1,29,34,purism,1,3288
1310,5015,1,29,35,braise,1,2044
1311,5015,1,29,37,travesty,1,4408
1312,5015,1,29,39,scarlet,3,3905
1313,5015,1,29,40,starred,6,3113
1314,5015,1,29,41,cellar,6,2337
1315,5015,1,29,42,radish,4,4453
1316,5015,1,29,43,ugh,7,2852
1317,5015,1,29,44,dull,7,941
1318,5015,1,29,45,prickle,7,1756
1319,5015,1,29,46,alligator,3,3180
1320,5015,1,29,47,minority,3,2173
1321,5015,1,29,48,demystify,3,1873
1322,5015,1,29,49,figurative,1,3353
1323,5015,1,29,50,mouthpiece,6,3528
1324,5015,1,29,51,nexus,4,3493
1325,5015,1,29,52,contaminate,4,2197
1326,5015,2,22,53,cutter,5,5975
1327,5015,2,22,54,writer,7,2847
1328,5015,2,22,55,delicious,4,2743
1329,5015,2,22,56,frost,6,2235
1330,5015,2,22,57,hurdle,2,4300
1331,5015,2,22,58,vocational,1,3740
1332,5015,2,22,59,sensitization,1,2828
1333,5015,2,22,60,ineloquent,4,3216
1334,5015,2,22,61,obsolete,4,1699
1335,5015,2,22,62,disgust,6,2601
1336,5015,2,22,63,tidy,5,2436
1337,5015,2,22,64,bathroom,7,2906
1338,5015,2,22,65,implausible,1,4300
1339,5015,2,22,66,blacken,7,2438
1340,5015,2,22,67,catatonic,3,3790
1341,5015,2,22,68,paver,5,2018
1342,5015,2,22,69,surly,5,1586
1343,5015,2,22,70,gentleman,7,3836
1344,5015,2,22,71,savor,6,2108
1345,5015,2,22,72,accursed,3,2894
1346,5015,2,22,73,pulverize,5,3433
1347,5015,2,22,74,sort,5,1653
1348,5015,2,22,75,eloquence,3,2994
1349,5015,2,22,76,circuit,4,2993
1350,5015,2,22,77,jammy,1,3570
1351,5015,2,22,78,strew,1,6157
1352,5015,2,22,80,restorative,2,3208
1353,5015,2,22,81,colloquial,1,3575
1354,5015,2,22,82,attic,7,2529
1355,5015,2,22,83,extol,4,2248
1356,5015,2,22,84,liberalism,4,2253
1357,5015,2,22,85,whiffy,1,3937
1358,5015,2,22,86,loopy,7,2506
1359,5015,2,22,87,override,6,3602
1360,5015,2,22,88,twine,7,3706
1361,5015,2,22,89,handled,7,1225
1362,5015,2,22,90,dial,7,1549
1363,5015,2,22,91,apology,2,4814
1364,5015,2,22,92,prelude,4,3265
1365,5015,2,22,93,fest,7,2741
1366,5015,2,22,94,mimic,4,4152
1367,5015,2,22,95,stagger,7,2016
1368,5015,2,22,96,bowl,7,1313
1369,5015,2,22,97,granny,6,2971
1370,5015,2,22,98,transcendent,1,3106
1371,5015,2,22,99,motherland,7,2896
1372,5015,2,22,100,rabid,5,4441
1373,5015,2,22,101,shuck,7,2366
1374,5015,2,22,102,taxi,6,2441
1375,5015,2,22,103,intending,2,3211
1376,5015,2,22,104,redneck,4,2848
1377,5016,1,2,1,perforate,5,3004
1378,5016,1,2,2,peg,6,3793
1379,5016,1,2,3,staph,2,2179
1380,5016,1,2,4,most,4,4996
1381,5016,1,2,5,caulk,6,1796
1382,5016,1,2,6,inadvertence,2,30726
1383,5016,1,2,7,tartar,2,73284
1384,5016,1,2,8,blizzard,5,14519
1385,5016,1,2,9,grutch,1,2686
1386,5016,1,2,10,harem,1,15395
1387,5016,1,2,11,replenish,7,2688
1388,5016,1,2,12,oom-pah,1,2324
1389,5016,1,2,13,stockyard,4,1907
1390,5016,1,2,14,pinion,3,27947
1391,5016,1,2,15,lacquer,1,2051
1392,5016,1,2,16,pap,1,38797
1393,5016,1,2,17,bray,1,88306
1394,5016,1,2,18,gush,2,1898
1395,5016,1,2,19,gallant,4,1254
1396,5016,1,2,20,clamber,6,2067
1397,5016,1,2,21,oscilloscope,7,7464
1398,5016,1,2,22,downy,4,2573
1399,5016,1,2,23,disparage,4,9800
1400,5016,1,2,24,fester,4,101722
1401,5016,1,2,25,colic,5,2031
1402,5016,1,2,26,patter,3,45687
1403,5016,1,2,27,loin,2,1787
1404,5016,1,2,28,tom-tom,7,4333
1405,5016,1,2,29,winterberry,7,2692
1406,5016,1,2,30,prawn,6,81012
1407,5016,1,2,31,quieten,2,2064
1408,5016,1,2,33,barge,2,2210
1409,5016,1,2,34,designing,4,2194
1410,5016,1,2,35,coagulate,3,3048
1411,5016,1,2,36,widen,7,1650
1412,5016,1,2,37,yuk,7,4617
1413,5016,1,2,38,archetypal,4,2480
1414,5016,1,2,39,aardvark,1,314120
1415,5016,1,2,40,napalm,3,2070
1416,5016,1,2,41,premeditate,6,2645
1417,5016,1,2,42,scratches,6,2236
1418,5016,1,2,43,slink,1,1448
1419,5016,1,2,44,indelicate,2,123904
1420,5016,1,2,45,flank,6,1198
1421,5016,1,2,46,plash,4,2286
1422,5016,1,2,48,amalgamate,2,1861
1423,5016,1,2,49,raze,2,1961
1424,5016,1,2,50,abstractive,6,1244
1425,5016,1,2,51,sonorous,3,3060
1426,5016,1,2,52,deviance,3,2062
1427,5016,1,2,53,mahogany,1,2186
1428,5016,1,2,55,jut,1,1662
1429,5016,1,2,56,inviting,7,2599
1430,5016,1,2,57,adrenaline,4,3358
1431,5016,1,2,58,bollocks,5,2687
1432,5016,1,2,59,calcify,4,5234
1433,5016,1,2,60,stentorian,3,1784
1434,5016,1,2,61,squall,3,4642
1435,5016,1,2,62,liar,6,1464
1436,5016,1,2,63,conjectural,4,1804
1437,5016,1,2,64,ignorance,7,2872
1438,5016,1,2,65,tipper,7,2891
1439,5016,1,2,66,croon,1,3437
1440,5016,1,2,68,salacious,1,2152
1441,5016,1,2,69,corroborate,2,2631
1442,5016,1,2,70,chassis,6,2940
1443,5016,1,2,71,unify,7,1409
1444,5016,1,2,72,bulkhead,7,1846
1445,5017,1,1,1,congenial,2,4102
1446,5017,1,1,2,salaam,4,9612
1447,5017,1,1,3,mosey,5,6122
1448,5017,1,1,4,interval,4,2826
1449,5017,1,1,5,manslaughter,7,2080
1450,5017,1,1,6,aphid,2,7404
1451,5017,1,1,7,yowl,4,6809
1452,5017,1,1,8,empathy,3,2943
1453,5017,1,1,9,filly,6,1710
1454,5017,1,1,10,biff,1,6260
1455,5017,1,1,11,horsepower,7,3399
1456,5017,1,1,12,kirk,1,12238
1457,5017,1,1,13,bayou,3,3873
1458,5017,1,1,14,beget,2,1932
1459,5017,1,1,15,he-he,6,8080
1460,5017,1,1,16,nosh,2,9489
1461,5017,1,1,17,undefiled,4,3881
1462,5017,1,1,18,denigrate,3,5090
1463,5017,1,1,19,Populism,5,1554
1464,5017,1,1,20,divest,3,2237
1465,5017,1,1,22,catsup,5,3952
1466,5017,1,1,23,hardly,5,2945
1467,5017,1,1,24,deinstitutionalize,6,3516
1468,5017,1,1,25,useful,5,1253
1469,5017,1,1,27,pragmatism,5,2023
1470,5017,1,1,28,clairvoyance,7,2430
1471,5017,1,1,29,radio,7,1460
1472,5017,1,1,30,panorama,4,1561
1473,5017,1,1,31,Swede,5,6946
1474,5017,1,1,32,spiel,4,2289
1475,5017,1,1,33,bard,4,3290
1476,5017,1,1,34,pointer,5,1237
1477,5017,1,1,35,albatross,3,4201
1478,5017,1,1,36,petticoat,4,2747
1479,5017,1,1,37,live,6,2889
1480,5017,1,1,38,magnolia,4,5425
1481,5017,1,1,39,wino,3,2648
1482,5017,1,1,40,methadone,3,7362
1483,5017,1,1,41,jump,5,6504
1484,5017,1,1,42,tweak,6,1384
1485,5017,1,1,43,edict,3,5791
1486,5017,1,1,44,carpal,2,4967
1487,5017,1,1,45,patten,2,5109
1488,5017,1,1,46,epoxy,2,9618
1489,5017,1,1,48,cold,4,2215
1490,5017,1,1,49,latrine,5,3664
1491,5017,1,1,50,unabashed,3,2247
1492,5017,1,1,51,driving,4,1544
1493,5017,1,1,52,flog,5,1601
1494,5017,1,1,53,flan,4,1448
1495,5017,1,1,54,lackey,6,1689
1496,5017,1,1,55,heresy,5,2733
1497,5017,1,1,56,truncheon,2,6176
1498,5017,1,1,57,scour,3,2367
1499,5017,1,1,58,stipple,3,10416
1500,5017,1,1,59,gob,4,3045
1501,5017,1,1,60,scanner,6,1851
1502,5017,1,1,61,invigorate,4,1528
1503,5017,1,1,62,tip,4,2506
1504,5017,1,1,63,sty,6,2089
1505,5017,1,1,64,thatch,5,2192
1506,5017,1,1,65,bouffant,5,9796
1507,5017,1,1,66,viceroy,7,4073
1508,5017,1,1,67,indolence,5,2227
1509,5017,1,1,69,accuse,4,1832
1510,5017,1,1,70,varnish,5,1464
1511,5017,1,1,71,tosh,3,5441
1512,5018,1,1,1,directory,4,9173
1513,5018,1,1,2,hype,5,4387
1514,5018,1,1,3,molt,2,16747
1515,5018,1,1,4,collate,3,6053
1516,5018,1,1,5,titillate,5,11103
1517,5018,1,1,6,edict,2,11973
1518,5018,1,1,7,judo,4,5093
1519,5018,1,1,8,plight,3,3168
1520,5018,1,1,9,adder,1,11274
1521,5018,1,1,10,yammer,6,8449
1522,5018,1,1,11,hiss,7,1640
1523,5018,1,1,12,conspicuous,7,252
1524,5018,1,1,13,fractious,3,13826
1525,5018,1,1,14,staple,2,2728
1526,5018,1,1,15,fennel,2,2537
1527,5018,1,1,16,masseuse,5,2657
1528,5018,1,1,17,uncouth,5,3099
1529,5018,1,1,18,globular,4,9927
1530,5018,1,1,19,laid,5,2685
1531,5018,1,1,20,cynic,4,2207
1532,5018,1,1,21,soundtrack,6,3399
1533,5018,1,1,22,endow,3,3013
1534,5018,1,1,23,bevel,4,1802
1535,5018,1,1,24,oration,5,696151
1536,5018,1,1,25,vilify,5,15470
1537,5018,1,1,26,inexorable,4,4961
1538,5018,1,1,27,transport,5,1799
1539,5018,1,1,28,unswear,2,2142
1540,5018,1,1,29,cede,4,2650
1541,5018,1,1,30,imperceptive,3,1817
1542,5018,1,1,31,screed,2,12381
1543,5018,1,1,32,pollutant,5,3498
1544,5018,1,1,34,extrude,6,2021
1545,5018,1,1,35,arduous,6,10048
1546,5018,1,1,36,bayou,4,3896
1547,5018,1,1,37,brackish,2,73938
1548,5018,1,1,38,flatulent,5,2168
1549,5018,1,1,39,bulkhead,5,34169
1550,5018,1,1,41,paddywhack,6,16382
1551,5018,1,1,43,shrike,1,11663
1552,5018,1,1,44,civilly,5,2340
1553,5018,1,1,45,preheat,6,4110
1554,5018,1,1,46,haiku,1,2907
1555,5018,1,1,47,purgatory,3,3320
1556,5018,1,1,48,stringent,5,3444
1557,5018,1,1,49,antic,5,2213
1558,5018,1,1,50,peddle,4,3204
1559,5018,1,1,51,radicalism,5,2246
1560,5018,1,1,52,courier,4,3296
1561,5018,1,1,53,volleyball,6,4363
1562,5018,1,1,55,lovable,5,4453
1563,5018,1,1,56,demonic,6,1977
1564,5018,1,1,57,remit,3,11317
1565,5018,1,1,58,clod,5,11008
1566,5018,1,1,59,phonics,5,1717
1567,5018,1,1,60,noise,6,2217
1568,5018,1,1,61,cancan,5,10428
1569,5018,1,1,62,gargoyle,5,2702
1570,5018,1,1,63,rumpus,6,2077
1571,5018,1,1,64,deviance,5,1605
1572,5018,1,1,65,snifter,5,4581
1573,5018,1,1,66,mourn,3,3234
1574,5018,1,1,67,draggle,5,13564
1575,5018,1,1,68,tartar,2,3172
1576,5018,1,1,69,lifeguard,5,2881
1577,5019,1,3,1,evidential,1,28287
1578,5019,1,3,2,damned,3,35625
1579,5019,1,3,3,namely,1,3957
1580,5019,1,3,4,undeceive,1,5213
1581,5019,1,3,5,mizzle,NA,9642
1582,5019,1,3,6,thruster,5,23309
1583,5019,1,3,7,invigorate,2,22057
1584,5019,1,3,8,litter,3,60746
1585,5019,1,3,9,bushel,4,45102
1586,5019,1,3,10,veto,1,5924
1587,5019,1,3,11,transmute,NA,13796
1588,5019,1,3,12,cold,5,10385
1589,5019,1,3,13,libelous,1,14044
1590,5019,1,3,14,eave,4,22295
1591,5019,1,3,15,gore,6,4141
1592,5019,1,3,16,bit,7,5232
1593,5019,1,3,18,control,2,22736
1594,5019,1,3,19,interpreter,1,3937
1595,5019,1,3,21,genital,2,72380
1596,5019,1,3,22,feline,3,48027
1597,5019,1,3,23,dehydration,1,25902
1598,5019,1,3,24,thigh,3,14308
1599,5019,1,3,25,dong,6,10356
1600,5019,1,3,26,immortality,1,5055
1601,5019,1,3,27,thatch,6,2048
1602,5019,1,3,28,champagne,3,11373
1603,5019,1,3,29,concourse,1,5202
1604,5019,1,3,31,adrenaline,1,9951
1605,5019,1,3,32,quince,4,9067
1606,5019,1,3,33,anecdote,2,4667
1607,5019,1,3,34,nix,7,1936
1608,5019,1,3,35,shin,5,6948
1609,5019,1,3,36,ignorance,1,2978
1610,5019,1,3,37,manslaughter,2,12981
1611,5019,1,3,38,blamable,4,9148
1612,5019,1,3,40,Populism,NA,13152
1613,5019,1,3,41,herby,NA,3458
1614,5019,1,3,42,bruise,6,3256
1615,5019,1,3,43,revenge,2,18694
1616,5019,1,3,44,paternal,2,7087
1617,5019,1,3,45,briny,4,3066
1618,5020,1,2,1,benevolent,1,3997
1619,5020,1,2,2,jowl,5,4005
1620,5020,1,2,3,competition,2,3198
1621,5020,1,2,4,cordial,2,2254
1622,5020,1,2,5,folklore,1,3832
1623,5020,1,2,6,paper,2,2544
1624,5020,1,2,7,keel,5,2060
1625,5020,1,2,8,insubstantial,1,2388
1626,5020,1,2,9,hardly,2,2124
1627,5020,1,2,10,politician,1,2232
1628,5020,1,2,11,gaffe,5,2765
1629,5020,1,2,12,township,1,3514
1630,5020,1,2,13,oom-pah,6,2768
1631,5020,1,2,14,midge,5,2735
1632,5020,1,2,15,grutch,NA,3262
1633,5020,1,2,17,bookie,3,3438
1634,5020,1,2,18,qualification,2,2508
1635,5020,1,2,19,downy,5,2706
1636,5020,1,2,20,liar,3,2292
1637,5020,1,2,22,wishful,5,2017
1638,5020,1,2,23,Realtor,1,2209
1639,5020,1,2,24,metal,3,1830
1640,5020,1,2,25,stroke,6,2537
1641,5020,1,2,26,concoct,2,2812
1642,5020,1,2,27,pension,1,2747
1643,5020,1,2,28,filch,5,2745
1644,5020,1,2,29,indelicate,3,2752
1645,5020,1,2,30,mump,6,2443
1646,5020,1,2,31,protective,2,2751
1647,5020,1,2,32,assailant,1,3049
1648,5020,1,2,33,sober,4,2821
1649,5020,1,2,34,chatterbox,6,2698
1650,5020,1,2,36,matted,3,2774
1651,5020,1,2,37,addict,2,1609
1652,5020,1,2,38,designing,3,2193
1653,5020,1,2,39,crusade,6,2323
1654,5020,1,2,40,tyrannous,NA,3116
1655,5020,1,2,42,satiny,2,2674
1656,5020,1,2,43,barge,4,2039
1657,5020,1,2,44,canyon,3,3118
1658,5020,1,2,45,bleep,7,1716
1659,5020,1,2,46,resident,1,3241
1660,5020,1,2,47,goggle,6,1673
1661,5020,2,38,48,wildfire,2,3052
1662,5020,2,38,49,liquid,5,1905
1663,5020,2,38,50,prodigious,1,2511
1664,5020,2,38,51,rehash,6,3039
1665,5020,2,38,52,bloomer,5,4884
1666,5020,2,38,53,modernist,1,1759
1667,5020,2,38,54,baggy,5,1649
1668,5020,2,38,55,snippy,7,1810
1669,5020,2,38,56,homemade,2,1935
1670,5020,2,38,57,arose,5,2970
1671,5020,2,38,58,invasive,2,1768
1672,5020,2,38,59,competency,1,1853
1673,5020,2,38,60,tetanus,1,1855
1674,5020,2,38,61,conversation,1,1874
1675,5020,2,38,62,easel,2,1959
1676,5020,2,38,63,unpack,3,2153
1677,5020,2,38,65,porridge,4,2908
1678,5020,2,38,66,gobble,7,1912
1679,5020,2,38,67,rationalism,1,2090
1680,5020,2,38,68,divine,3,1946
1681,5020,2,38,69,fan,2,2097
1682,5020,2,38,70,brightness,1,1721
1683,5020,2,38,71,decide,2,2057
1684,5020,2,38,72,inartistic,1,1509
1685,5020,2,38,73,spellbound,5,2190
1686,5020,2,38,74,trill,7,2278
1687,5020,2,38,75,haughty,3,2651
1688,5020,2,38,77,painstaking,5,2120
1689,5020,2,38,78,informative,2,2177
1690,5020,2,38,79,magnesium,1,1628
1691,5020,2,38,80,warm,5,1845
1692,5020,2,38,81,behoof,4,1824
1693,5020,2,38,83,scoreboard,2,2304
1694,5020,2,38,84,rhapsody,5,2378
1695,5020,2,38,85,lapel,1,2023
1696,5020,2,38,86,subprime,2,2046
1697,5020,2,38,87,Guinea,1,1646
1698,5020,2,38,88,forehead,3,2137
1699,5020,2,38,89,zucchini,1,1855
1700,5020,2,38,90,evident,2,1548
1701,5020,2,38,92,shaking,5,2591
1702,5020,2,38,93,deride,3,2009
1703,5020,2,38,94,sinker,4,1880
1704,5020,2,38,95,mum,7,3844
1705,5020,2,38,96,meddlesome,2,2112
1706,5020,2,38,97,vat,3,1926
1707,5020,3,4,98,fabric,4,3584
1708,5020,3,4,99,unheralded,1,2789
1709,5020,3,4,100,pathway,3,1953
1710,5020,3,4,101,jump,6,2047
1711,5020,3,4,102,aftermath,1,2011
1712,5020,3,4,103,individual,1,1320
1713,5020,3,4,104,syndicate,1,1856
1714,5020,3,4,105,firm,6,2461
1715,5020,3,4,106,entertaining,2,1970
1716,5020,3,4,107,conspirator,1,2032
1717,5020,3,4,108,peg,4,1828
1718,5020,3,4,109,legendary,2,1815
1719,5020,3,4,110,undefiled,1,2056
1720,5020,3,4,111,disputatious,NA,2448
1721,5020,3,4,112,insurrectionary,1,3641
1722,5020,3,4,113,flan,3,1705
1723,5020,3,4,115,Aurora,5,1944
1724,5020,3,4,117,witch,2,1704
1725,5020,3,4,118,sampler,1,2617
1726,5020,3,4,119,peacock,5,2494
1727,5020,3,4,120,perversion,3,2046
1728,5020,3,4,121,colic,4,1932
1729,5020,3,4,122,flush,6,2387
1730,5020,3,4,123,live,2,2720
1731,5020,3,4,124,accuse,1,1983
1732,5020,3,4,125,surprising,4,2044
1733,5020,3,4,126,rampage,5,1992
1734,5020,3,4,127,originative,1,2193
1735,5020,3,4,128,fell,3,1793
1736,5020,3,4,129,vagabond,2,1680
1737,5020,3,4,130,numerous,4,1801
1738,5020,3,4,131,snore,6,1889
1739,5020,3,4,132,empathetic,2,2207
1740,5020,3,4,133,replenish,3,2869
1741,5020,3,4,134,turpentine,1,1415
1742,5020,3,4,136,convenience,1,2080
1743,5020,3,4,137,tasteless,2,1617
1744,5020,3,4,138,condescendence,2,2882
1745,5020,3,4,139,deice,NA,2064
1746,5020,3,4,140,reverberate,5,2551
1747,5020,3,4,141,petticoat,2,2026
1748,5020,3,4,142,bikini,2,2464
1749,5020,3,4,144,quintessential,2,2149
1750,5020,3,4,145,advance,3,1857
1751,5020,3,4,146,meek,5,1980
1752,5020,3,4,147,most,1,2456
1753,5020,3,4,148,bollocks,1,1461
1754,5020,3,4,149,stronghold,2,1846
1755,5020,3,4,150,saintly,2,1830
1756,5020,3,4,151,inviting,1,1831
1757,5020,3,4,152,tar,2,1800
1758,5021,1,2,1,dame,4,14092
1759,5021,1,2,2,whicker,5,4037
1760,5021,1,2,3,lancer,5,4930
1761,5021,1,2,4,ejaculation,6,3976
1762,5021,1,2,5,discrepancy,2,2054
1763,5021,1,2,6,macaw,NA,7714
1764,5021,1,2,7,bray,4,2747
1765,5021,1,2,8,pilgrimage,6,2934
1766,5021,1,2,9,ambivalence,3,16307
1767,5021,1,2,10,undercharge,1,2614
1768,5021,1,2,11,impious,NA,2050
1769,5021,1,2,12,purloin,3,2572
1770,5021,1,2,13,capitulation,5,3043
1771,5021,1,2,14,hypodermic,4,3239
1772,5021,1,2,15,scud,7,2122
1773,5021,1,2,16,yawl,6,1662
1774,5021,1,2,17,pomade,3,2846
1775,5021,1,2,18,repugnance,5,2000
1776,5021,1,2,19,upholstery,1,10517
1777,5021,1,2,20,drake,3,3607
1778,5021,1,2,21,sniggle,7,1821
1779,5021,1,2,22,gash,6,1562
1780,5021,1,2,23,aardvark,4,3514
1781,5021,1,2,24,beach,3,2206
1782,5021,1,2,25,sadistic,5,1925
1783,5021,1,2,26,consummate,5,2373
1784,5021,1,2,27,organize,4,1720
1785,5021,1,2,28,devious,6,2152
1786,5021,1,2,29,torrent,4,2061
1787,5021,1,2,30,lira,3,2015
1788,5021,1,2,31,morose,NA,2117
1789,5021,1,2,32,denigrate,5,1869
1790,5021,1,2,33,biz,6,3613
1791,5021,1,2,34,hock,6,2784
1792,5021,1,2,35,burlap,4,2291
1793,5021,1,2,36,mastiff,3,1973
1794,5021,1,2,37,TelePrompTer,5,2988
1795,5021,1,2,38,hangout,5,2224
1796,5021,1,2,40,aspen,3,5197
1797,5021,1,2,41,prelim,2,2757
1798,5021,1,2,42,per,6,2705
1799,5021,1,2,43,muff,7,1267
1800,5021,1,2,44,pang,7,2105
1801,5021,1,2,45,nosh,3,1803
1802,5021,1,2,46,fuchsia,5,1872
1803,5021,1,2,47,ire,6,2986
1804,5021,1,2,48,eyeglass,3,2468
1805,5021,1,2,50,apathy,3,2290
1806,5021,1,2,51,spoof,6,3389
1807,5021,1,2,53,staunch,4,5341
1808,5021,1,2,54,stroller,5,1497
1809,5021,1,2,55,vim,NA,1565
1810,5021,1,2,56,rapt,NA,1396
1811,5021,1,2,57,cloy,3,1799
1812,5021,1,2,58,eulogize,5,2165
1813,5021,1,2,59,plod,6,2656
1814,5021,1,2,60,coming,2,2818
1815,5021,1,2,61,clad,5,1429
1816,5021,1,2,62,ceramic,5,1760
1817,5021,1,2,64,sidle,2,3139
1818,5021,1,2,65,gob,7,1676
1819,5021,1,2,66,jut,6,1915
1820,5021,1,2,67,coven,5,2170
1821,5021,1,2,68,fetid,2,2530
1822,5021,1,2,69,trilogy,6,3225
1823,5021,1,2,70,flog,5,2375
1824,5022,1,9,1,chagrin,1,6104
1825,5022,1,9,2,beret,3,6969
1826,5022,1,9,3,gook,1,5598
1827,5022,1,9,4,tog,NA,3862
1828,5022,1,9,5,fail,2,4402
1829,5022,1,9,6,courier,5,3356
1830,5022,1,9,7,control,1,7602
1831,5022,1,9,8,brimstone,7,2951
1832,5022,1,9,9,pash,NA,2260
1833,5022,1,9,10,fell,5,4189
1834,5022,1,9,11,senile,1,4056
1835,5022,1,9,12,crusade,4,4032
1836,5022,1,9,13,gaffe,7,4647
1837,5022,1,9,14,pestilence,4,6931
1838,5022,1,9,15,quail,4,6807
1839,5022,1,9,16,competition,1,3893
1840,5022,1,9,17,mollify,NA,2578
1841,5022,1,9,19,lampoon,7,2896
1842,5022,1,9,20,rapt,1,2278
1843,5022,1,9,21,succinct,3,5377
1844,5022,1,9,22,dreg,7,5877
1845,5022,1,9,23,synergize,4,2656
1846,5022,1,9,24,cloy,NA,4044
1847,5022,1,9,25,dullard,4,3232
1848,5022,1,9,26,emblem,1,8195
1849,5022,1,9,27,matted,4,5508
1850,5022,1,9,28,organize,1,4214
1851,5022,1,9,29,impertinent,1,4681
1852,5022,1,9,30,tenuous,1,5330
1853,5022,1,9,31,joint,1,4026
1854,5022,1,9,33,intensive,4,5076
1855,5022,1,9,34,accrue,4,6312
1856,5022,1,9,35,unheeded,4,7970
1857,5022,1,9,36,bushel,7,4679
1858,5022,1,9,37,palatable,7,7125
1859,5022,1,9,38,ejaculation,1,5947
1860,5022,1,9,39,immortality,1,7968
1861,5022,1,9,40,blowout,7,3220
1862,5022,1,9,41,turpentine,4,7869
1863,5022,1,9,42,noxious,4,9628
1864,5022,1,9,43,legendary,7,3413
1865,5022,1,9,44,dap,NA,2565
1866,5022,1,9,45,fatso,7,2926
1867,5022,1,9,46,pride,1,5671
1868,5022,1,9,47,knurl,NA,2553
1869,5022,1,9,48,desalt,4,5546
1870,5022,1,9,49,dehorn,7,3112
1871,5022,1,9,50,airfield,7,3809
1872,5022,1,9,51,entertaining,1,4176
1873,5022,1,9,52,bit,4,4306
1874,5022,1,9,53,madam,4,4882
1875,5022,1,9,54,cameo,7,3303
1876,5022,1,9,55,filch,7,2768
1877,5022,1,9,57,scud,NA,4491
1878,5022,1,9,58,amuck,7,2834
1879,5022,1,9,60,foreman,7,3200
1880,5022,1,9,61,brackish,7,6158
1881,5022,1,9,62,manicotti,1,2998
1882,5022,1,9,63,tyrannous,4,5295
1883,5022,1,9,64,mump,7,2823
1884,5022,1,9,65,adjudge,4,5510
1885,5022,1,9,66,stative,1,4114
1886,5022,1,9,67,informer,7,3566
1887,5022,1,9,68,dicker,4,5002
1888,5022,1,9,69,nix,1,5384
1889,5022,1,9,70,hemp,4,3944
1890,5022,1,9,71,glom,7,3562
1891,5023,1,4,1,gallant,4,5210
1892,5023,1,4,2,presumptuous,4,4444
1893,5023,1,4,3,neoconservatism,4,165
1894,5023,1,4,4,latent,5,4331
1895,5023,1,4,5,misanthropic,3,5854
1896,5023,1,4,6,catsup,1,3816
1897,5023,1,4,7,visionary,7,2688
1898,5023,1,4,8,universalist,5,2749
1899,5023,1,4,9,papery,6,3586
1900,5023,1,4,10,beech,4,3372
1901,5023,1,4,11,Valium,1,6302
1902,5023,1,4,12,cremate,4,4162
1903,5023,1,4,13,lode,4,1701
1904,5023,1,4,14,citadel,4,1759
1905,5023,1,4,15,idiomatic,4,1146
1906,5023,1,4,16,rounding,5,4389
1907,5023,1,4,17,pinion,2,4856
1908,5023,1,4,18,faun,4,2222
1909,5023,1,4,19,squall,4,1809
1910,5023,1,4,20,ossify,NA,2598
1911,5023,1,4,21,mosey,5,2511
1912,5023,1,4,22,filly,2,2636
1913,5023,1,4,23,poignancy,NA,236
1914,5023,1,4,24,coon,NA,2916
1915,5023,1,4,25,stipple,5,2959
1916,5023,1,4,26,refined,4,2906
1917,5023,1,4,27,saunter,4,938
1918,5023,1,4,28,emulsify,4,729
1919,5023,1,4,29,sojourn,4,849
1920,5023,1,4,30,sifter,4,1027
1921,5023,1,4,31,pragmatism,4,964
1922,5023,1,4,32,degerm,4,1254
1923,5023,1,4,33,senile,4,1125
1924,5023,1,4,34,inauspicious,4,3422
1925,5023,1,4,35,tosh,4,1027
1926,5023,1,4,36,gramophone,4,4438
1927,5023,1,4,37,despoil,3,2353
1928,5023,1,4,38,calcify,4,1651
1929,5023,1,4,39,hematoma,3,1995
1930,5023,1,4,40,extensible,3,1314
1931,5023,1,4,41,ticker,4,1729
1932,5023,1,4,42,yuk,5,2608
1933,5023,1,4,43,bloke,4,2470
1934,5023,1,4,44,mahogany,3,3025
1935,5023,1,4,45,cognizable,2,2551
1936,5023,1,4,46,ulcerate,NA,2629
1937,5023,1,4,47,append,4,2145
1938,5023,1,4,48,oceanic,5,3453
1939,5023,1,4,49,knap,3,2652
1940,5023,1,4,50,genuflect,NA,2562
1941,5023,1,4,51,jive,2,3708
1942,5023,1,4,52,conjectural,3,2464
1943,5023,1,4,56,hore,NA,4354
1944,5023,1,4,57,perfunctory,1,7439
1945,5023,1,4,58,flue,NA,4236
1946,5023,1,4,59,brimstone,4,3254
1947,5023,1,4,60,displayed,4,5917
1948,5023,1,4,61,drumstick,2,3036
1949,5023,1,4,62,dicker,NA,2156
1950,5023,1,4,64,widen,4,1779
1951,5023,1,4,65,atonement,2,2413
1952,5023,1,4,66,acidify,3,1948
1953,5023,1,4,67,clamorous,4,3285
1954,5023,1,4,68,amuck,4,2551
1955,5023,1,4,69,sump,2,4046
1956,5023,1,4,70,quail,2,2860
1957,5024,1,34,1,blissful,3,8337
1958,5024,1,34,2,tenor,4,7318
1959,5024,1,34,3,distend,3,1245
1960,5024,1,34,4,languid,4,1573
1961,5024,1,34,5,calm,4,538
1962,5024,1,34,6,photo,3,366
1963,5024,1,34,7,days,4,497
1964,5024,1,34,8,fussy,5,978
1965,5024,1,34,9,compactor,4,659
1966,5024,1,34,10,severance,4,622
1967,5024,1,34,11,dioxide,3,900
1968,5024,1,34,12,infinity,4,751
1969,5024,1,34,13,printer,4,642
1970,5024,1,34,14,babe,5,423
1971,5024,1,34,15,limp,6,20357
1972,5024,1,34,16,introspective,4,806
1973,5024,1,34,17,crisp,5,438
1974,5024,1,34,19,am,5,755
1975,5024,1,34,20,vanilla,3,359
1976,5024,1,34,21,pagan,4,521
1977,5024,1,34,22,dwarf,4,302
1978,5024,1,34,23,unlearned,3,895
1979,5024,1,34,24,spaniel,4,309
1980,5024,1,34,26,sneeze,5,1677
1981,5024,1,34,28,holding,4,1062
1982,5024,1,34,29,grr,7,6168
1983,5024,1,34,30,depopulate,4,1104
1984,5024,1,34,31,following,3,1061
1985,5024,1,34,32,bedding,4,663
1986,5024,1,34,33,swipe,4,1117
1987,5024,1,34,34,simplicity,4,458
1988,5024,1,34,35,putrefy,5,2561
1989,5024,1,34,36,harvest,3,1108
1990,5024,1,34,37,unassailable,4,1321
1991,5024,1,34,38,waiter,4,3060
1992,5024,1,34,39,contract,5,989
1993,5024,1,34,40,miscellaneous,2,2554
1994,5024,1,34,41,mucus,3,1952
1995,5024,1,34,42,adjudicate,5,1980
1996,5024,1,34,43,fallen,4,375
1997,5024,1,34,44,maturity,4,878
1998,5024,1,34,45,inadequate,5,740
1999,5024,1,34,46,triceps,3,982
2000,5024,1,34,47,scholar,5,1999
2001,5024,1,34,48,pen,3,29984
2002,5024,1,34,49,regency,4,1208
2003,5024,1,34,50,emulate,6,2197
2004,5024,1,34,51,revision,4,498
2005,5024,1,34,53,widow,4,1581
2006,5024,1,34,54,glorification,3,1218
2007,5024,1,34,55,zip,4,1232
2008,5025,1,14,1,partisan,4,10182
2009,5025,1,14,2,billow,3,1356
2010,5025,1,14,3,legal,6,2535
2011,5025,1,14,4,boon,3,1472
2012,5025,1,14,5,precognition,2,9113
2013,5025,1,14,6,indisposed,4,1891
2014,5025,1,14,7,confusing,6,2547
2015,5025,1,14,8,Hottentot,1,8417
2016,5025,1,14,9,buddy,7,18343
2017,5025,1,14,10,satin,2,2294
2018,5025,1,14,11,agreement,7,1935
2019,5025,1,14,12,persimmon,3,1644
2020,5025,1,14,13,target,6,35423
2021,5025,1,14,14,thriftless,2,38055
2022,5025,1,14,15,stork,3,2276
2023,5025,1,14,16,fedex,5,1944
2024,5025,1,14,17,detector,4,2195
2025,5025,1,14,18,middle,6,1345
2026,5025,1,14,19,slant,3,1526
2027,5025,1,14,20,shotgun,6,1302
2028,5025,1,14,21,codeine,4,1436
2029,5025,1,14,22,choo-choo,5,1847
2030,5025,1,14,23,eighty,6,1977
2031,5025,1,14,24,objectify,3,1894
2032,5025,1,14,26,grab,6,10882
2033,5025,1,14,27,flier,3,3861
2034,5025,1,14,28,marathon,2,9852
2035,5025,1,14,29,recommendatory,3,4729
2036,5025,1,14,30,discourse,5,1375
2037,5025,1,14,31,lockup,5,7842
2038,5025,1,14,32,quibble,5,805
2039,5025,1,14,33,gawk,5,638
2040,5025,1,14,35,resent,5,1880
2041,5025,1,14,36,irritant,2,2584
2042,5025,1,14,37,risk,5,5624
2043,5025,1,14,38,unwell,6,4357
2044,5025,1,14,39,sunset,5,663
2045,5025,1,14,40,anticipatory,3,1143
2046,5025,1,14,41,solicitor,2,2151
2047,5025,1,14,42,corroborate,4,1736
2048,5025,1,14,43,knock,6,999
2049,5025,1,14,44,wench,3,1632
2050,5025,1,14,45,expertise,6,1752
2051,5025,1,14,46,other,7,1765
2052,5025,1,14,47,insincere,5,1319
2053,5025,1,14,48,wood,6,1196
2054,5025,1,14,50,hallowed,2,1812
2055,5025,1,14,51,entrance,7,6814
2056,5025,1,14,52,seat,5,3570
2057,5025,1,14,54,curling,5,4922
2058,5025,1,14,55,degrade,4,6609
2059,5025,1,14,56,toucan,1,100226
2060,5025,1,14,57,turnover,5,1674
2061,5025,1,14,58,carpeting,3,1831
2062,5025,2,4,59,legendary,5,1820
2063,5025,2,4,60,undefiled,2,3832
2064,5025,2,4,61,tasteless,4,1480
2065,5025,2,4,62,surprising,6,1229
2066,5025,2,4,63,quintessential,2,1495
2067,5025,2,4,64,individual,6,1432
2068,5025,2,4,65,unheralded,3,1682
2069,5025,2,4,66,fell,7,1342
2070,5025,2,4,67,witch,5,1715
2071,5025,2,4,68,reverberate,2,47325
2072,5025,2,4,69,flush,6,12578
2073,5025,2,4,70,insurrectionary,2,1766
2074,5025,2,4,71,peacock,4,850
2075,5025,2,4,72,live,5,8017
2076,5025,2,4,73,stronghold,6,1102
2077,5025,2,4,74,replenish,5,1433
2078,5025,2,4,75,originative,6,914
2079,5025,2,4,76,flan,2,31682
2080,5025,2,4,77,advance,7,26851
2081,5025,2,4,78,vagabond,2,8657
2082,5025,2,4,79,conspirator,5,15738
2083,5025,2,4,80,sampler,5,17813
2084,5025,2,4,81,perversion,5,61885
2085,5025,2,4,82,most,7,1370
2086,5025,2,4,83,syndicate,2,2402
2087,5025,2,4,85,snore,7,1605
2088,5025,2,4,86,Aurora,4,2636
2089,5025,2,4,87,petticoat,3,57338
2090,5025,2,4,88,numerous,6,2725
2091,5025,2,4,89,fabric,7,25751
2092,5025,2,4,90,pathway,6,1558
2093,5025,2,4,91,tar,4,1349
2094,5025,2,4,92,bollocks,3,1334
2095,5025,2,4,93,peg,5,1112
2096,5025,2,4,95,bikini,6,2385
2097,5025,2,4,96,entertaining,7,1327
2098,5025,2,4,97,meek,5,623
2099,5025,2,4,98,firm,6,802
2100,5025,2,4,99,aftermath,5,5072
2101,5025,2,4,100,disputatious,2,13893
2102,5025,2,4,101,empathetic,6,10912
2103,5025,2,4,102,colic,5,9200
2104,5025,2,4,103,condescendence,5,2388
2105,5025,2,4,104,rampage,5,17448
2106,5025,2,4,106,accuse,6,1947
2107,5025,2,4,107,deice,2,1600
2108,5025,2,4,108,inviting,6,8598
2109,5025,2,4,109,convenience,5,1305
2110,5025,2,4,110,jump,6,890
2111,5025,2,4,111,saintly,3,1488
2112,5025,2,4,113,turpentine,2,1688
2113,5026,1,38,1,modernist,4,4551
2114,5026,1,38,2,vat,3,5712
2115,5026,1,38,3,competency,2,6035
2116,5026,1,38,4,tetanus,2,4067
2117,5026,1,38,5,rationalism,5,3278
2118,5026,1,38,6,bloomer,6,3166
2119,5026,1,38,7,evident,4,4815
2120,5026,1,38,8,inartistic,3,3951
2121,5026,1,38,9,prodigious,5,2273
2122,5026,1,38,10,informative,5,5129
2123,5026,1,38,11,porridge,7,2608
2124,5026,1,38,12,easel,7,2010
2125,5026,1,38,13,Guinea,7,1971
2126,5026,1,38,14,zucchini,5,2611
2127,5026,1,38,15,rhapsody,5,2854
2128,5026,1,38,17,gobble,7,5426
2129,5026,1,38,18,subprime,4,2694
2130,5026,1,38,19,trill,5,1890
2131,5026,1,38,20,lapel,6,2048
2132,5026,1,38,21,wildfire,7,3376
2133,5026,1,38,22,homemade,7,6718
2134,5026,1,38,23,rehash,7,3556
2135,5026,1,38,24,painstaking,7,2014
2136,5026,1,38,25,fan,7,2095
2137,5026,1,38,26,unpack,7,4333
2138,5026,1,38,27,haughty,5,2095
2139,5026,1,38,28,liquid,7,2350
2140,5026,1,38,29,snippy,7,1900
2141,5026,1,38,30,baggy,7,1679
2142,5026,1,38,31,forehead,7,2103
2143,5026,1,38,32,brightness,7,3641
2144,5026,1,38,34,behoof,6,4405
2145,5026,1,38,35,deride,7,1819
2146,5026,1,38,36,decide,4,2626
2147,5026,1,38,37,magnesium,4,3464
2148,5026,1,38,38,conversation,7,1872
2149,5026,1,38,39,sinker,7,1892
2150,5026,1,38,40,divine,7,2307
2151,5026,1,38,41,meddlesome,7,3910
2152,5026,1,38,42,scoreboard,7,1961
2153,5026,1,38,44,mum,7,2132
2154,5026,1,38,45,arose,7,1865
2155,5026,1,38,46,invasive,7,1998
2156,5026,1,38,47,warm,7,1788
2157,5026,1,38,49,shaking,7,5096
2158,5026,1,38,50,spellbound,7,1953
2159,5027,1,9,1,agglomerate,3,6268
2160,5027,1,9,2,coastline,NA,56
2161,5027,1,9,3,gory,4,1201
2162,5027,1,9,4,underhanded,5,9078
2163,5027,1,9,5,wedlock,3,1897
2164,5027,1,9,6,salve,2,1519
2165,5027,1,9,7,habitual,3,1185
2166,5027,1,9,8,discernment,4,969
2167,5027,1,9,9,monsoon,5,1097
2168,5027,1,9,10,rebate,5,1185
2169,5027,1,9,11,defense,4,996
2170,5027,1,9,12,plague,5,1312
2171,5027,1,9,13,pragmatics,3,930
2172,5027,1,9,14,perishable,3,993
2173,5027,1,9,15,loan,4,777
2174,5027,1,9,16,shiner,6,2105
2175,5027,1,9,17,brown,4,1841
2176,5027,1,9,18,mutinous,3,1186
2177,5027,1,9,19,tulip,5,1250
2178,5027,1,9,20,executioner,4,791
2179,5027,1,9,21,thirty,5,1818
2180,5027,1,9,22,skip,NA,5687
2181,5027,1,9,23,soil,3,1634
2182,5027,1,9,24,laughable,4,834
2183,5027,1,9,25,kingdom,3,1634
2184,5027,1,9,27,barbaric,3,1602
2185,5027,1,9,28,absent,4,903
2186,5027,1,9,29,prominence,3,698
2187,5027,1,9,30,bonbon,5,601
2188,5027,1,9,31,repentant,4,723
2189,5027,1,9,32,hornet,3,2506
2190,5027,1,9,33,caramelize,5,1554
2191,5027,1,9,34,independency,4,938
2192,5027,1,9,35,sullen,3,1214
2193,5027,1,9,36,flaring,6,2042
2194,5027,1,9,37,rig,4,1274
2195,5027,1,9,39,copy,3,1298
2196,5027,1,9,40,childbirth,6,1378
2197,5027,1,9,41,spring,5,1466
2198,5027,1,9,42,irremediable,3,997
2199,5027,1,9,43,effect,4,1514
2200,5027,1,9,44,unsung,6,1378
2201,5027,1,9,45,tamp,2,1690
2202,5027,1,9,48,gang,4,1314
2203,5027,1,9,49,foxhole,5,1362
2204,5027,1,9,50,tortoise,2,1482
2205,5027,1,9,51,meteor,5,1194
2206,5028,1,8,1,nitrify,7,5243
2207,5028,1,8,2,dread,7,4506
2208,5028,1,8,3,refute,1,11261
2209,5028,1,8,4,voracious,1,8137
2210,5028,1,8,5,liege,1,5288
2211,5028,1,8,6,carafe,1,2526
2212,5028,1,8,7,extensible,1,3432
2213,5028,1,8,8,graft,1,4448
2214,5028,1,8,9,emblazon,NA,2882
2215,5028,1,8,10,watershed,7,7732
2216,5028,1,8,11,applaud,1,2794
2217,5028,1,8,12,quaff,1,3690
2218,5028,1,8,13,abscess,7,2550
2219,5028,1,8,14,sifter,7,5617
2220,5028,1,8,15,township,7,2965
2221,5028,1,8,16,enamor,1,3741
2222,5028,1,8,17,preen,NA,1984
2223,5028,1,8,18,lope,NA,1830
2224,5028,1,8,19,sadistic,1,8544
2225,5028,1,8,20,hematoma,7,2715
2226,5028,1,8,21,grippe,NA,1927
2227,5028,1,8,22,mores,NA,2630
2228,5028,1,8,23,hangar,1,2361
2229,5028,1,8,24,flue,7,4196
2230,5028,1,8,25,joggle,NA,4186
2231,5028,1,8,26,thigh,7,7428
2232,5028,1,8,27,conspirator,1,2361
2233,5028,1,8,28,mango,7,5888
2234,5028,1,8,29,upholstery,1,3186
2235,5028,1,8,30,syndicate,1,1650
2236,5028,1,8,31,dong,7,4760
2237,5028,1,8,32,sojourn,1,4879
2238,5028,1,8,33,counterpart,7,2246
2239,5028,1,8,34,pearl,7,5088
2240,5028,1,8,35,pacifism,1,3398
2241,5028,1,8,37,protective,1,5939
2242,5028,1,8,38,espy,NA,3102
2243,5028,1,8,39,maternity,7,5894
2244,5028,1,8,40,fructify,NA,2283
2245,5028,1,8,41,feline,1,6398
2246,5028,1,8,43,obscene,1,2887
2247,5028,1,8,44,per,7,2835
2248,5028,1,8,45,assailant,7,3587
2249,5028,1,8,46,macaw,7,4275
2250,5028,1,8,47,remit,7,4261
2251,5028,1,8,48,uncertain,1,1961
2252,5028,1,8,51,globular,7,7820
2253,5028,1,8,52,query,1,1813
2254,5028,1,8,53,ceramic,7,4613
2255,5028,1,8,54,whippoorwill,NA,5026
2256,5028,1,8,55,bereavement,1,1986
2257,5028,1,8,56,pollutant,7,5519
2258,5028,1,8,57,evangelicalism,1,2232
2259,5028,1,8,58,ebb,7,3892
2260,5029,1,6,1,truly,7,3102
2261,5029,1,6,2,chest,6,1726
2262,5029,1,6,3,foster,5,1421
2263,5029,1,6,4,incorruptible,4,1167
2264,5029,1,6,5,affiliate,5,1851
2265,5029,1,6,6,game,6,3012
2266,5029,1,6,7,shelves,7,1412
2267,5029,1,6,8,tail,4,2049
2268,5029,1,6,9,profuse,5,2164
2269,5029,1,6,10,amusing,7,2029
2270,5029,1,6,11,ricotta,3,2428
2271,5029,1,6,12,engaging,5,2862
2272,5029,1,6,13,salt,6,2152
2273,5029,1,6,14,quart,5,1742
2274,5029,1,6,15,flammable,3,4579
2275,5029,1,6,16,muss,4,1835
2276,5029,1,6,17,mongrel,5,3444
2277,5029,1,6,18,notorious,5,3546
2278,5029,1,6,19,conclusive,7,2359
2279,5029,1,6,20,suit,6,2500
2280,5029,1,6,21,exclusion,5,1750
2281,5029,1,6,22,skiff,6,1147
2282,5029,1,6,23,capitalism,4,1538
2283,5029,1,6,24,unsearchable,2,2359
2284,5029,1,6,25,cooperation,3,1446
2285,5029,1,6,26,thermos,4,1723
2286,5029,1,6,27,guppy,4,931
2287,5029,1,6,28,hoot,6,984
2288,5029,1,6,29,abortion,4,2144
2289,5029,1,6,30,kilo,5,871
2290,5029,1,6,31,disapprove,6,1302
2291,5029,1,6,32,donut,7,1796
2292,5029,1,6,33,scribble,5,1606
2293,5029,1,6,34,artifact,4,1507
2294,5029,1,6,37,malicious,7,2010
2295,5029,1,6,38,boating,6,4568
2296,5029,1,6,39,render,4,3799
2297,5029,1,6,40,torpedo,6,1163
2298,5029,1,6,41,verbose,5,1554
2299,5029,1,6,42,wearing,6,1353
2300,5029,1,6,44,deduct,4,1785
2301,5029,1,6,45,broccoli,5,1324
2302,5029,1,6,46,wishbone,6,1114
2303,5029,1,6,47,ironic,7,1681
2304,5029,1,6,49,meningitis,4,1409
2305,5029,1,6,50,hearten,6,826
2306,5029,1,6,51,clunker,5,880
2307,5029,1,6,52,desired,6,3353
2308,5029,1,6,53,potential,5,836
2309,5029,1,6,54,banking,4,1454
2310,5029,1,6,55,loaded,6,1908
2311,5029,1,6,56,stigma,6,1633
2312,5029,1,6,57,inlet,7,1190
2313,5029,2,3,58,ignorance,5,1885
2314,5029,2,3,59,revenge,6,2139
2315,5029,2,3,60,quince,5,1533
2316,5029,2,3,61,genital,4,949
2317,5029,2,3,62,invigorate,5,1477
2318,5029,2,3,63,bit,7,2674
2319,5029,2,3,64,immortality,5,1007
2320,5029,2,3,65,thigh,6,3066
2321,5029,2,3,66,interpreter,5,802
2322,5029,2,3,67,control,6,786
2323,5029,2,3,68,libelous,7,1354
2324,5029,2,3,69,mizzle,4,496
2325,5029,2,3,70,namely,5,682
2326,5029,2,3,71,gore,6,3120
2327,5029,2,3,72,nix,5,2555
2328,5029,2,3,73,cold,4,727
2329,5029,2,3,74,briny,2,2452
2330,5029,2,3,75,thatch,4,1388
2331,5029,2,3,76,evidential,5,1141
2332,5029,2,3,77,concourse,6,1088
2333,5029,2,3,78,herby,7,1238
2334,5029,2,3,80,dehydration,5,1720
2335,5029,2,3,82,thruster,7,1293
2336,5029,2,3,83,blamable,5,802
2337,5029,2,3,84,bruise,4,1661
2338,5029,2,3,85,bushel,5,1311
2339,5029,2,3,86,champagne,4,632
2340,5029,2,3,87,dong,6,872
2341,5029,2,3,89,manslaughter,5,1632
2342,5029,2,3,90,litter,6,1599
2343,5029,2,3,91,shin,5,1059
2344,5029,2,3,92,anecdote,2,4829
2345,5029,2,3,93,damned,5,1820
2346,5029,2,3,94,feline,6,1153
2347,5029,2,3,95,adrenaline,7,1376
2348,5029,2,3,96,Populism,6,739
2349,5029,2,3,97,paternal,5,775
2350,5029,2,3,98,veto,4,1020
2351,5029,2,3,99,eave,3,1489
2352,5029,2,3,100,transmute,6,1854
2353,5029,2,3,101,undeceive,6,2777
2354,5029,3,4,103,pathway,4,8568
2355,5029,3,4,104,replenish,5,1874
2356,5029,3,4,105,empathetic,6,681
2357,5029,3,4,106,deice,5,2356
2358,5029,3,4,107,accuse,7,685
2359,5029,3,4,108,bikini,5,210
2360,5029,3,4,109,entertaining,6,876
2361,5029,3,4,110,bollocks,4,71305
2362,5029,3,4,111,perversion,6,2335
2363,5029,3,4,112,insurrectionary,3,1871
2364,5029,3,4,113,live,4,1455
2365,5029,3,4,114,numerous,5,21013
2366,5029,3,4,115,saintly,7,1436
2367,5029,3,4,116,inviting,5,2192
2368,5029,3,4,117,Aurora,6,1667
2369,5029,3,4,118,peg,5,1698
2370,5029,3,4,119,flush,7,3260
2371,5029,3,4,120,individual,5,2904
2372,5029,3,4,121,legendary,6,824
2373,5029,3,4,122,petticoat,7,5854
2374,5029,3,4,123,syndicate,5,3402
2375,5029,3,4,124,stronghold,6,1829
2376,5029,3,4,125,meek,5,1885
2377,5029,3,4,126,originative,7,2147
2378,5029,3,4,127,colic,5,1727
2379,5029,3,4,129,unheralded,6,2388
2380,5029,3,4,130,jump,5,1387
2381,5029,3,4,131,most,7,3577
2382,5029,3,4,132,undefiled,4,6060
2383,5029,3,4,133,witch,5,1282
2384,5029,3,4,134,turpentine,6,1621
2385,5029,3,4,135,flan,5,1663
2386,5029,3,4,136,sampler,3,3088
2387,5029,3,4,138,fabric,5,1717
2388,5029,3,4,139,tasteless,7,1362
2389,5029,3,4,140,surprising,5,808
2390,5029,3,4,142,convenience,4,2864
2391,5029,3,4,143,vagabond,5,1544
2392,5029,3,4,144,aftermath,6,2059
2393,5029,3,4,145,advance,7,2230
2394,5029,3,4,146,rampage,5,1542
2395,5029,3,4,147,condescendence,6,1961
2396,5029,3,4,148,quintessential,5,1645
2397,5029,3,4,149,firm,7,1708
2398,5029,3,4,150,reverberate,4,1784
2399,5029,3,4,152,tar,4,1431
2400,5029,3,4,153,snore,3,1585
2401,5029,3,4,154,conspirator,2,1675
2402,5029,3,4,155,fell,7,2595
2403,5029,3,4,156,peacock,6,1062
2404,5029,3,4,157,disputatious,2,3235
2405,5030,1,34,1,mucus,1,7484
2406,5030,1,34,2,waiter,2,1706
2407,5030,1,34,3,zip,2,1746
2408,5030,1,34,4,photo,4,994
2409,5030,1,34,5,tenor,2,2377
2410,5030,1,34,6,miscellaneous,4,1724
2411,5030,1,34,7,grr,1,1394
2412,5030,1,34,8,fussy,2,1626
2413,5030,1,34,9,emulate,4,1364
2414,5030,1,34,10,triceps,3,1527
2415,5030,1,34,11,following,2,3207
2416,5030,1,34,12,compactor,3,1715
2417,5030,1,34,13,fallen,2,1260
2418,5030,1,34,14,dioxide,4,1561
2419,5030,1,34,15,swipe,2,14756
2420,5030,1,34,16,adjudicate,NA,3261
2421,5030,1,34,17,unassailable,NA,5974
2422,5030,1,34,18,infinity,5,1028
2423,5030,1,34,19,regency,3,17438
2424,5030,1,34,20,languid,NA,1415
2425,5030,1,34,21,dwarf,5,1262
2426,5030,1,34,22,bedding,1,13451
2427,5030,1,34,23,introspective,5,3391
2428,5030,1,34,24,am,1,1917
2429,5030,1,34,25,vanilla,1,4160
2430,5030,1,34,26,babe,5,4544
2431,5030,1,34,27,putrefy,NA,2008
2432,5030,1,34,28,glorification,5,7978
2433,5030,1,34,30,holding,2,1544
2434,5030,1,34,31,inadequate,4,1361
2435,5030,1,34,32,severance,5,1795
2436,5030,1,34,33,distend,NA,1739
2437,5030,1,34,34,widow,1,2547
2438,5030,1,34,35,depopulate,NA,1611
2439,5030,1,34,36,sneeze,2,1515
2440,5030,1,34,37,limp,2,2275
2441,5030,1,34,38,scholar,4,1895
2442,5030,1,34,39,spaniel,NA,1714
2443,5030,1,34,41,pagan,NA,1779
2444,5030,1,34,42,crisp,5,1694
2445,5030,1,34,43,harvest,2,8503
2446,5030,1,34,44,revision,4,1779
2447,5030,1,34,45,blissful,5,2189
2448,5030,1,34,46,pen,1,1201
2449,5030,1,34,47,calm,5,2041
2450,5030,1,34,48,days,1,4411
2451,5030,1,34,50,maturity,4,1639
2452,5030,1,34,52,printer,3,2197
2453,5030,1,34,53,unlearned,2,3841
2454,5030,1,34,54,simplicity,5,1109
2455,5030,1,34,55,contract,2,2830
2456,5031,1,7,1,degerm,4,5428
2457,5031,1,7,2,copious,3,5001
2458,5031,1,7,3,wizened,3,2046
2459,5031,1,7,4,gaminess,4,2150
2460,5031,1,7,5,hore,NA,1968
2461,5031,1,7,6,squib,NA,1695
2462,5031,1,7,7,euthanasia,2,2294
2463,5031,1,7,8,cremate,5,3159
2464,5031,1,7,9,fidelity,4,1839
2465,5031,1,7,10,eave,NA,2230
2466,5031,1,7,11,rampart,4,2218
2467,5031,1,7,12,sampler,5,2679
2468,5031,1,7,13,malty,5,1790
2469,5031,1,7,14,ungovernable,3,3513
2470,5031,1,7,15,seismic,3,2787
2471,5031,1,7,16,Valium,3,1777
2472,5031,1,7,17,spooky,6,2954
2473,5031,1,7,18,forced,3,2230
2474,5031,1,7,19,bookie,4,3373
2475,5031,1,7,20,tout,6,2282
2476,5031,1,7,21,rounding,6,1211
2477,5031,1,7,22,soiree,NA,1829
2478,5031,1,7,23,peacock,3,2390
2479,5031,1,7,25,damned,5,2426
2480,5031,1,7,26,antic,3,2881
2481,5031,1,7,27,oblong,5,4996
2482,5031,1,7,28,lam,3,2516
2483,5031,1,7,29,voluptuous,4,2010
2484,5031,1,7,30,meeting,5,58626
2485,5031,1,7,31,neese,3,3727
2486,5031,1,7,32,guitar,2,1987
2487,5031,1,7,33,sieve,2,986
2488,5031,1,7,34,hic,NA,1746
2489,5031,1,7,35,fractious,4,1806
2490,5031,1,7,36,burlap,3,1861
2491,5031,1,7,38,slander,5,1878
2492,5031,1,7,40,rhubarb,2,2305
2493,5031,1,7,42,macaroni,3,2195
2494,5031,1,7,43,sniggle,NA,1962
2495,5031,1,7,44,sacrilegious,1,4250
2496,5031,1,7,45,crowded,6,2736
2497,5031,1,7,46,bruise,3,2243
2498,5031,1,7,47,resident,3,2192
2499,5031,1,7,48,plod,NA,1482
2500,5031,1,7,49,bequeath,4,2366
2501,5031,1,7,50,pension,4,2132
2502,5031,1,7,51,beatnik,NA,1742
2503,5031,1,7,52,esoteric,NA,1450
2504,5031,1,7,53,disputatious,NA,1089
2505,5031,1,7,54,fish,6,3015
2506,5031,1,7,55,siren,3,2316
2507,5031,1,7,56,nipple,4,2305
2508,5031,1,7,57,conspicuous,2,2379
2509,5031,1,7,58,pariah,NA,1855
2510,5031,1,7,59,capitulation,NA,5211
2511,5031,1,7,60,predict,5,1744
2512,5031,1,7,61,asphyxiate,1,2786
2513,5031,1,7,62,multiplex,5,3301
2514,5031,1,7,63,genital,2,4770
2515,5031,1,7,64,perverted,3,2162
2516,5031,1,7,65,stronghold,7,2897
2517,5031,1,7,66,adjectival,2,2633
2518,5031,1,7,67,trime,NA,1981
2519,5032,1,7,1,flirt,7,2893
2520,5032,1,7,2,siren,5,3321
2521,5032,1,7,3,pitiful,1,3214
2522,5032,1,7,4,Smirnoff,1,1932
2523,5032,1,7,5,predict,4,1999
2524,5032,1,7,6,soulless,7,2293
2525,5032,1,7,7,dullard,1,2277
2526,5032,1,7,8,arsenic,3,2366
2527,5032,1,7,9,panorama,5,3831
2528,5032,1,7,10,demonstrate,7,3547
2529,5032,1,7,11,avalanche,1,3048
2530,5032,1,7,12,botulism,1,1346
2531,5032,1,7,13,gush,7,3357
2532,5032,1,7,14,puss,1,4415
2533,5032,1,7,15,esoteric,1,2644
2534,5032,1,7,16,accrue,1,906
2535,5032,1,7,17,turbulence,4,2764
2536,5032,1,7,18,abstractive,5,2406
2537,5032,1,7,19,fidelity,1,2060
2538,5032,1,7,20,crowded,7,1611
2539,5032,1,7,21,alphabetical,4,3070
2540,5032,1,7,22,joint,7,3094
2541,5032,1,7,24,scratches,7,1639
2542,5032,1,7,26,innocuous,1,1772
2543,5032,1,7,27,doggy,7,2435
2544,5032,1,7,28,expressly,4,2352
2545,5032,1,7,29,multiplex,1,2445
2546,5032,1,7,30,gourd,4,3927
2547,5032,1,7,31,understood,5,2716
2548,5032,1,7,32,asphyxia,1,2740
2549,5032,1,7,33,nipper,1,1431
2550,5032,1,7,35,phoebe,1,2128
2551,5032,1,7,36,spooky,7,1472
2552,5032,1,7,37,guitar,7,778
2553,5032,1,7,38,watershed,1,2743
2554,5032,1,7,39,course,4,2904
2555,5032,1,7,40,pride,7,1554
2556,5032,1,7,41,earthy,4,1240
2557,5032,1,7,42,twang,1,1917
2558,5032,1,7,43,propriety,1,845
2559,5032,1,7,45,chassis,1,1748
2560,5032,1,7,46,rebut,3,2463
2561,5032,1,7,47,simplex,4,2908
2562,5033,1,2,1,capitulation,NA,15177
2563,5033,1,2,2,macaw,5,24264
2564,5033,1,2,3,vim,NA,6629
2565,5033,1,2,4,sadistic,4,6883
2566,5033,1,2,5,pang,NA,3873
2567,5033,1,2,6,pilgrimage,3,10642
2568,5033,1,2,7,hypodermic,4,19138
2569,5033,1,2,8,staunch,NA,7877
2570,5033,1,2,9,ambivalence,NA,5563
2571,5033,1,2,10,eulogize,2,8112
2572,5033,1,2,11,impious,NA,3192
2573,5033,1,2,12,beach,3,16995
2574,5033,1,2,13,purloin,NA,3337
2575,5033,1,2,14,rapt,NA,5982
2576,5033,1,2,15,fetid,NA,2036
2577,5033,1,2,16,aardvark,4,7839
2578,5033,1,2,17,ceramic,5,7572
2579,5033,1,2,18,repugnance,NA,5828
2580,5033,1,2,19,sidle,NA,2204
2581,5033,1,2,20,apathy,3,9359
2582,5033,1,2,21,fuchsia,NA,5340
2583,5033,1,2,22,dame,2,11262
2584,5033,1,2,23,scud,NA,1732
2585,5033,1,2,24,burlap,4,5889
2586,5033,1,2,25,cloy,NA,2819
2587,5033,1,2,26,coven,2,13600
2588,5033,1,2,27,organize,4,4821
2589,5033,1,2,28,lira,NA,2020
2590,5033,1,2,29,gob,NA,1447
2591,5033,1,2,30,ire,2,6774
2592,5033,1,2,31,lancer,NA,2560
2593,5033,1,2,32,undercharge,1,9222
2594,5033,1,2,33,clad,3,5579
2595,5033,1,2,34,upholstery,1,6562
2596,5033,1,2,35,plod,NA,1896
2597,5033,1,2,36,flog,6,5341
2598,5033,1,2,37,morose,NA,2336
2599,5033,1,2,40,coming,3,10110
2600,5033,1,2,41,aspen,1,7771
2601,5033,1,2,42,jut,NA,1777
2602,5033,1,2,43,discrepancy,4,8788
2603,5033,1,2,44,prelim,NA,1853
2604,5033,1,2,45,gash,5,4167
2605,5033,1,2,46,ejaculation,5,5097
2606,5033,1,2,47,torrent,5,4558
2607,5033,1,2,48,per,NA,4175
2608,5033,1,2,49,biz,NA,4433
2609,5033,1,2,50,bray,NA,2043
2610,5033,1,2,51,mastiff,NA,3325
2611,5033,1,2,52,hangout,3,9008
2612,5033,1,2,53,drake,NA,5673
2613,5033,1,2,54,trilogy,2,7154
2614,5033,1,2,55,denigrate,2,11586
2615,5033,1,2,56,devious,5,2826
2616,5033,1,2,57,hock,NA,1909
2617,5033,1,2,59,TelePrompTer,4,13724
2618,5033,1,2,60,eyeglass,4,8560
2619,5033,1,2,61,spoof,3,4884
2620,5033,1,2,62,sniggle,NA,2974
2621,5033,1,2,63,pomade,NA,1828
2622,5033,1,2,64,consummate,1,6464
2623,5033,1,2,65,stroller,4,5898
2624,5033,1,2,66,yawl,NA,3354
2625,5033,1,2,67,nosh,NA,1339
2626,5033,1,2,68,muff,NA,1440
2627,5033,1,2,69,whicker,3,9231
2628,5034,1,4,1,ulcerate,4,6145
2629,5034,1,4,2,faun,NA,7363
2630,5034,1,4,3,ossify,NA,1549
2631,5034,1,4,4,rounding,7,3533
2632,5034,1,4,5,gramophone,3,2633
2633,5034,1,4,6,catsup,1,3177
2634,5034,1,4,7,saunter,3,2217
2635,5034,1,4,8,widen,6,3482
2636,5034,1,4,9,brimstone,6,1135
2637,5034,1,4,10,oceanic,7,2146
2638,5034,1,4,11,squall,5,2464
2639,5034,1,4,12,bloke,2,4096
2640,5034,1,4,13,ticker,6,2223
2641,5034,1,4,14,hematoma,3,8552
2642,5034,1,4,15,amuck,3,1146
2643,5034,1,4,16,sifter,5,2428
2644,5034,1,4,17,conjectural,1,2946
2645,5034,1,4,18,cognizable,2,3756
2646,5034,1,4,19,pragmatism,2,1410
2647,5034,1,4,20,gallant,2,1024
2648,5034,1,4,21,displayed,5,3536
2649,5034,1,4,22,Valium,3,4047
2650,5034,1,4,23,genuflect,NA,2017
2651,5034,1,4,25,misanthropic,NA,3306
2652,5034,1,4,26,poignancy,3,2755
2653,5034,1,4,27,refined,4,3408
2654,5034,1,4,28,inauspicious,2,2511
2655,5034,1,4,29,atonement,3,2056
2656,5034,1,4,30,coon,4,2914
2657,5034,1,4,31,latent,3,2748
2658,5034,1,4,32,filly,3,2175
2659,5034,1,4,33,universalist,3,1332
2660,5034,1,4,35,calcify,3,3542
2661,5034,1,4,36,mahogany,3,1502
2662,5034,1,4,37,mosey,4,2785
2663,5034,1,4,38,dicker,3,2886
2664,5034,1,4,39,sump,3,1397
2665,5034,1,4,40,extensible,2,3439
2666,5034,1,4,41,presumptuous,2,1396
2667,5034,1,4,42,cremate,6,2183
2668,5034,1,4,43,jive,6,1628
2669,5034,1,4,45,append,3,2560
2670,5034,1,4,46,papery,3,1679
2671,5034,1,4,48,tosh,1,4418
2672,5034,1,4,49,clamorous,5,3012
2673,5034,1,4,50,neoconservatism,2,4334
2674,5034,1,4,51,stipple,2,1330
2675,5034,1,4,52,visionary,5,2027
2676,5034,1,4,53,despoil,2,2580
2677,5034,1,4,54,flue,3,1969
2678,5034,1,4,55,degerm,3,895
2679,5034,1,4,56,citadel,1,2124
2680,5034,1,4,57,drumstick,7,2223
2681,5034,1,4,58,idiomatic,4,2746
2682,5034,1,4,59,lode,1,2300
2683,5034,1,4,60,yuk,2,3458
2684,5034,1,4,61,emulsify,2,1475
2685,5034,1,4,62,pinion,2,1020
2686,5034,1,4,63,quail,4,2391
2687,5034,1,4,64,acidify,3,2388
2688,5034,1,4,65,hore,1,5431
2689,5034,1,4,66,knap,1,2220
2690,5034,1,4,67,perfunctory,1,1453
2691,5034,1,4,68,sojourn,2,3655
2692,5034,1,4,69,senile,2,1603
2693,5034,1,4,70,beech,4,3223
2694,5035,1,1,1,spiel,5,4084
2695,5035,1,1,2,ungovernable,3,1889
2696,5035,1,1,3,tweak,7,2130
2697,5035,1,1,4,abscess,4,1120
2698,5035,1,1,5,coated,3,1178
2699,5035,1,1,6,overall,3,235
2700,5035,1,1,7,pertain,5,1798
2701,5035,1,1,8,maternity,2,2286
2702,5035,1,1,9,plash,6,2046
2703,5035,1,1,10,clamber,5,1032
2704,5035,1,1,11,frap,5,388
2705,5035,1,1,12,emblem,5,271
2706,5035,1,1,13,nipple,3,1566
2707,5035,1,1,14,greyhound,4,589
2708,5035,1,1,15,peeper,5,874
2709,5035,1,1,16,liege,5,625
2710,5035,1,1,17,intensive,3,1443
2711,5035,1,1,18,scanner,2,272
2712,5035,1,1,19,unify,2,366
2713,5035,1,1,20,fail,2,413
2714,5035,1,1,21,exclude,4,2572
2715,5035,1,1,23,cinnamon,5,4000
2716,5035,1,1,24,spade,6,1482
2717,5035,1,1,25,pash,3,491
2718,5035,1,1,26,foreman,3,455
2719,5035,1,1,27,custodial,4,531
2720,5035,1,1,28,dread,2,369
2721,5035,1,1,30,bid,6,1276
2722,5035,1,1,31,bard,5,3105
2723,5035,1,1,33,useful,6,1627
2724,5035,1,1,34,chatter,4,513
2725,5035,1,1,35,vindicate,4,374
2726,5035,1,1,36,stockyard,3,778
2727,5035,1,1,37,enigmatic,5,955
2728,5035,1,1,38,asphyxiate,5,317
2729,5035,1,1,39,hemp,5,418
2730,5035,1,1,40,swath,3,1246
2731,5035,1,1,41,token,4,1313
2732,5035,1,1,42,airfield,3,508
2733,5035,1,1,43,ecstatic,5,1047
2734,5035,1,1,45,madam,3,1209
2735,5035,1,1,46,steal,3,1524
2736,5035,2,19,47,recur,5,2694
2737,5035,2,19,48,pug,5,245
2738,5035,2,19,49,slim,5,414
2739,5035,2,19,50,aisle,3,408
2740,5035,2,19,51,sooth,6,426
2741,5035,2,19,52,impervious,7,389
2742,5035,2,19,53,ticket,3,199
2743,5035,2,19,54,element,4,993
2744,5035,2,19,55,churning,4,102
2745,5035,2,19,56,update,4,311
2746,5035,2,19,57,bitch,5,172
2747,5035,2,19,58,count,6,690
2748,5035,2,19,59,traction,6,269
2749,5035,2,19,60,accordingly,3,879
2750,5035,2,19,61,dribble,3,309
2751,5035,2,19,62,expunge,2,220
2752,5035,2,19,63,sauna,5,836
2753,5035,2,19,64,devise,5,329
2754,5035,2,19,65,lettuce,5,405
2755,5035,2,19,66,whenever,6,397
2756,5035,2,19,67,supper,5,1519
2757,5035,2,19,68,handbook,4,802
2758,5035,2,19,69,base,6,348
2759,5035,2,19,70,jabber,7,2600
2760,5035,2,19,71,koala,7,351
2761,5035,2,19,72,pertinent,5,5263
2762,5035,2,19,75,disgorge,6,2127
2763,5035,2,19,77,narrate,3,3993
2764,5035,2,19,78,straw,6,40780
2765,5035,2,19,79,taste,7,131
2766,5035,2,19,80,feminine,7,245
2767,5035,2,19,81,romp,4,1025
2768,5035,2,19,82,marketplace,4,2839
2769,5035,2,19,83,castrate,4,4284
2770,5035,2,19,84,atrium,5,1831
2771,5035,2,19,85,resourceful,5,1338
2772,5035,2,19,86,hulk,3,4551
2773,5035,2,19,87,insulting,4,40777
2774,5035,2,19,88,conjure,3,5979
2775,5035,2,19,89,pregnancy,7,21438
2776,5035,2,19,90,unfasten,2,4792
2777,5035,2,19,91,would,2,2016
2778,5035,2,19,92,erode,3,284
2779,5035,2,19,94,military,3,9043
2780,5035,2,19,95,bungle,4,8185
2781,5035,2,19,96,loner,7,5600
2782,5035,2,19,97,herself,4,990
2783,5036,1,23,1,saw,5,14556
2784,5036,1,23,2,bats,4,14078
2785,5036,1,23,3,urgent,1,9806
2786,5036,1,23,4,writhe,6,13318
2787,5036,1,23,5,drizzle,7,8385
2788,5036,1,23,6,disinterested,2,11204
2789,5036,1,23,7,racial,6,15743
2790,5036,1,23,8,unhappy,4,33687
2791,5036,1,23,9,mindful,7,9271
2792,5036,1,23,10,volatile,6,12546
2793,5036,1,23,11,handling,7,5461
2794,5036,1,23,12,apparatus,2,5491
2795,5036,1,23,13,slob,7,5084
2796,5036,1,23,14,transfer,5,10010
2797,5036,1,23,15,shuffling,7,7974
2798,5036,1,23,16,sensor,6,11892
2799,5036,1,23,18,extortionate,2,17578
2800,5036,1,23,19,puma,6,11352
2801,5036,1,23,20,negative,3,12159
2802,5036,1,23,21,blacksmith,7,8465
2803,5036,1,23,22,motionless,5,5721
2804,5036,1,23,23,auctioneer,4,8285
2805,5036,1,23,24,whine,7,4945
2806,5036,1,23,25,obtrusive,1,6336
2807,5036,1,23,26,circulate,6,5025
2808,5036,1,23,27,colonoscopy,2,18847
2809,5036,1,23,28,intensity,5,6852
2810,5036,1,23,29,string,7,5696
2811,5036,1,23,30,result,4,8868
2812,5036,1,23,31,delight,5,5049
2813,5036,1,23,32,accusation,3,8241
2814,5036,1,23,33,burst,7,8020
2815,5036,1,23,34,hide,7,4059
2816,5036,1,23,35,surpass,1,5750
2817,5036,1,23,36,implode,7,5141
2818,5036,1,23,37,taxing,6,4671
2819,5036,1,23,38,stain,7,9938
2820,5036,1,23,39,cymbal,1,9501
2821,5036,1,23,41,catcher,3,19751
2822,5036,1,23,42,box,6,5316
2823,5036,1,23,43,alcohol,7,10052
2824,5036,1,23,44,pester,5,8594
2825,5036,1,23,45,janitor,2,10086
2826,5036,1,23,46,sought,6,6903
2827,5036,1,23,48,twist,7,4761
2828,5036,1,23,49,grant,5,8202
2829,5036,1,23,50,overturn,4,9248
2830,5036,1,23,51,paycheck,7,5543
2831,5036,1,23,52,reed,6,8926
2832,5036,1,23,53,pocketful,7,4926
2833,5036,1,23,54,marvelous,1,6265
2834,5036,1,23,55,ineptitude,1,4003
2835,5036,1,23,56,diamond,5,11209
2836,5036,1,23,58,tightrope,7,4811
2837,5036,2,15,59,outcome,7,6172
2838,5036,2,15,60,plate,7,8502
2839,5036,2,15,61,solidarity,3,6021
2840,5036,2,15,62,square,6,5911
2841,5036,2,15,63,insinuate,2,8527
2842,5036,2,15,64,boorish,6,4936
2843,5036,2,15,65,antiquate,2,11408
2844,5036,2,15,66,protector,6,8722
2845,5036,2,15,67,touched,6,10130
2846,5036,2,15,68,chronic,4,7403
2847,5036,2,15,69,Tarmac,3,8568
2848,5036,2,15,70,cognac,2,7776
2849,5036,2,15,71,graceful,7,4283
2850,5036,2,15,72,undone,5,7573
2851,5036,2,15,73,western,7,3826
2852,5036,2,15,74,objectionable,4,10296
2853,5036,2,15,75,absurd,7,6991
2854,5036,2,15,76,binge,5,15857
2855,5036,2,15,77,quiche,3,7906
2856,5036,2,15,78,flight,7,6327
2857,5036,2,15,79,currently,5,7285
2858,5036,2,15,80,maraud,NA,4782
2859,5036,2,15,82,shove,7,5267
2860,5036,2,15,83,fee,7,3921
2861,5036,2,15,84,irritate,1,5376
2862,5036,2,15,85,persistence,1,6313
2863,5036,2,15,86,resentment,3,10334
2864,5036,2,15,87,straggle,NA,17312
2865,5036,2,15,88,superlative,5,5831
2866,5036,2,15,89,herd,6,4193
2867,5036,2,15,91,worker,6,6404
2868,5036,2,15,92,halt,7,3040
2869,5036,2,15,93,hotter,7,4680
2870,5036,2,15,94,freckle,4,9119
2871,5036,2,15,95,conga,NA,6324
2872,5036,2,15,96,reconsider,1,4800
2873,5036,2,15,97,determinism,5,7042
2874,5036,2,15,98,moron,7,3535
2875,5036,2,15,99,buffer,7,5371
2876,5036,2,15,101,gay,7,3837
2877,5036,2,15,102,slather,7,5033
2878,5036,2,15,103,envy,4,7921
2879,5036,2,15,104,barista,3,4864
2880,5036,2,15,105,cartridge,4,6702
2881,5036,2,15,106,predatory,5,6259
2882,5036,2,15,107,unwholesome,4,10591
2883,5036,2,15,109,indistinctive,4,13225
2884,5036,2,15,110,knockout,7,3046
2885,5036,2,15,111,exploit,6,5427
2886,5036,2,15,112,Ritalin,2,5411
2887,5036,2,15,113,corrosive,7,6603
2888,5037,1,1,1,deviance,3,8789
2889,5037,1,1,2,stringent,3,5191
2890,5037,1,1,3,phonics,2,5296
2891,5037,1,1,4,vilify,3,6339
2892,5037,1,1,5,unswear,2,4420
2893,5037,1,1,6,staple,6,4407
2894,5037,1,1,7,titillate,4,5666
2895,5037,1,1,8,paddywhack,5,5054
2896,5037,1,1,9,demonic,3,2682
2897,5037,1,1,10,edict,4,3259
2898,5037,1,1,11,noise,3,3737
2899,5037,1,1,12,preheat,1,2464
2900,5037,1,1,13,directory,1,2365
2901,5037,1,1,14,pollutant,2,2170
2902,5037,1,1,15,bayou,2,2979
2903,5037,1,1,16,civilly,2,2829
2904,5037,1,1,17,bevel,4,5970
2905,5037,1,1,18,bulkhead,2,3604
2906,5037,1,1,20,uncouth,2,3468
2907,5037,1,1,21,cancan,6,5799
2908,5037,1,1,22,lovable,2,1932
2909,5037,1,1,23,inexorable,2,2111
2910,5037,1,1,24,transport,1,2392
2911,5037,1,1,25,fractious,4,3049
2912,5037,1,1,26,imperceptive,2,2647
2913,5037,1,1,27,adder,2,2395
2914,5037,1,1,28,tartar,1,5498
2915,5037,1,1,29,snifter,6,2985
2916,5037,1,1,30,conspicuous,1,1759
2917,5037,1,1,31,fennel,2,2355
2918,5037,1,1,32,yammer,7,2626
2919,5037,1,1,33,brackish,2,4715
2920,5037,1,1,34,peddle,4,3382
2921,5037,1,1,37,remit,3,3446
2922,5037,1,1,38,lifeguard,1,2005
2923,5037,1,1,39,screed,6,3835
2924,5037,1,1,40,laid,1,4798
2925,5037,1,1,41,hiss,7,2154
2926,5037,1,1,42,draggle,6,2579
2927,5037,1,1,43,flatulent,5,2967
2928,5037,1,1,44,masseuse,2,5326
2929,5037,1,1,45,cede,1,9392
2930,5037,1,1,46,collate,2,3037
2931,5037,1,1,47,arduous,1,2898
2932,5037,1,1,48,extrude,1,3037
2933,5037,1,1,49,mourn,2,2342
2934,5037,1,1,50,rumpus,5,3433
2935,5037,1,1,51,antic,2,2742
2936,5037,1,1,52,molt,2,4925
2937,5037,1,1,53,plight,1,4737
2938,5037,1,1,54,purgatory,2,4046
2939,5037,1,1,55,endow,1,3082
2940,5037,1,1,56,shrike,6,4890
2941,5037,1,1,57,globular,1,2687
2942,5037,1,1,58,courier,1,1726
2943,5037,1,1,59,volleyball,1,2778
2944,5037,1,1,60,clod,4,7082
2945,5037,1,1,61,gargoyle,4,136
2946,5037,1,1,62,hype,5,8484
2947,5037,1,1,63,haiku,1,4736
2948,5037,1,1,64,judo,1,2086
2949,5037,1,1,66,radicalism,1,2528
2950,5037,1,1,67,oration,2,2519
2951,5037,1,1,68,soundtrack,2,3331
2952,5037,1,1,69,cynic,2,2041
2953,5038,1,6,1,blizzard,5,5774
2954,5038,1,6,2,dappled,3,3588
2955,5038,1,6,3,soiree,2,3460
2956,5038,1,6,4,innocence,5,5208
2957,5038,1,6,5,disparage,3,5113
2958,5038,1,6,6,barrage,7,2089
2959,5038,1,6,7,uncertain,7,2883
2960,5038,1,6,8,horsepower,5,2465
2961,5038,1,6,9,banded,5,2513
2962,5038,1,6,10,driving,6,2333
2963,5038,1,6,11,joggle,2,2534
2964,5038,1,6,12,impalpable,2,3413
2965,5038,1,6,13,sib,1,2143
2966,5038,1,6,14,proffer,3,3346
2967,5038,1,6,15,roulette,2,2914
2968,5038,1,6,16,asphalt,6,2077
2969,5038,1,6,17,irresolute,3,11641
2970,5038,1,6,19,stipend,1,5792
2971,5038,1,6,20,schnorrer,NA,2163
2972,5038,1,6,21,understatement,6,3302
2973,5038,1,6,23,inapprehensive,5,3334
2974,5038,1,6,24,exchange,6,1764
2975,5038,1,6,25,sec,2,7196
2976,5038,1,6,26,manicotti,2,2134
2977,5038,1,6,27,company,7,2676
2978,5038,1,6,28,varnish,7,2511
2979,5038,1,6,29,macaroni,6,2516
2980,5038,1,6,30,sonorous,4,1922
2981,5038,1,6,31,rabbi,2,3526
2982,5038,1,6,32,expo,1,2704
2983,5038,1,6,33,blowout,7,1784
2984,5038,1,6,34,scour,7,1840
2985,5038,1,6,35,guise,4,2670
2986,5038,1,6,36,radio,5,2568
2987,5038,1,6,37,forced,7,2002
2988,5038,1,6,38,infinitesimal,2,2076
2989,5038,1,6,40,twain,1,3866
2990,5038,1,6,41,disconcert,4,4040
2991,5038,1,6,42,applaud,7,1646
2992,5038,1,6,44,tip,7,1978
2993,5038,2,2,45,sterling,4,4707
2994,5038,2,2,46,disaffected,3,1767
2995,5038,2,2,47,canon,5,2203
2996,5038,2,2,48,undaunted,7,2857
2997,5038,2,2,49,decorator,6,2124
2998,5038,2,2,50,hooch,1,1921
2999,5038,2,2,51,forget,7,2578
3000,5038,2,2,52,incommensurable,4,4044
3001,5038,2,2,53,gonad,2,2316
3002,5038,2,2,54,spirited,6,1645
3003,5038,2,2,55,laryngitis,6,2107
3004,5038,2,2,56,Velcro,5,1644
3005,5038,2,2,57,Tabasco,3,2160
3006,5038,2,2,58,fasten,7,1682
3007,5038,2,2,59,complicate,7,1543
3008,5038,2,2,60,shameless,5,2415
3009,5038,2,2,61,bring,6,2576
3010,5038,2,2,62,poser,4,2313
3011,5038,2,2,63,inhaler,7,2958
3012,5038,2,2,64,unprecedented,5,14088
3013,5038,2,2,65,muppet,6,2594
3014,5038,2,2,66,snow,5,3492
3015,5038,2,2,69,sainted,3,2705
3016,5038,2,2,70,relativity,5,1563
3017,5038,2,2,71,clout,3,2466
3018,5038,2,2,72,trinket,7,2154
3019,5038,2,2,73,orangutan,7,2621
3020,5038,2,2,74,hazardous,6,2569
3021,5038,2,2,75,profane,2,3658
3022,5038,2,2,76,perchance,2,2071
3023,5038,2,2,77,mole,1,2061
3024,5038,2,2,78,amongst,5,2339
3025,5038,2,2,79,quake,7,1880
3026,5038,2,2,80,rhythmic,7,1504
3027,5038,2,2,81,subway,3,2685
3028,5038,2,2,82,bale,3,3000
3029,5038,2,2,83,wine,2,2831
3030,5038,2,2,84,pal,4,2818
3031,5038,2,2,85,belligerent,4,2824
3032,5038,2,2,86,cook,7,1770
3033,5038,2,2,87,check,7,1646
3034,5038,2,2,89,blouse,4,3772
3035,5038,2,2,90,exasperate,5,3108
3036,5038,2,2,91,theatre,5,3082
3037,5038,2,2,92,gully,1,1454
3038,5038,2,2,93,meditative,2,2994
3039,5038,2,2,94,crotch,3,4363
3040,5038,2,2,95,kazoo,1,1564
3041,5038,2,2,96,fixture,5,1497
3042,5038,2,2,97,descriptive,6,1619
3043,5038,2,2,98,enchantment,4,2921
3044,5038,2,2,99,toots,1,1636
3045,5038,2,2,100,imagination,4,2074
3046,5038,2,2,101,adventurous,5,1382
3047,5038,2,2,102,nostalgia,1,3183
3048,5038,2,2,103,sirloin,2,2765
3049,5039,1,32,1,primal,1,6567
3050,5039,1,32,2,luxuriate,6,7935
3051,5039,1,32,3,limey,5,4520
3052,5039,1,32,4,tofu,1,5213
3053,5039,1,32,5,static,4,7796
3054,5039,1,32,6,beau,2,11630
3055,5039,1,32,7,foggy,6,11768
3056,5039,1,32,8,space,2,10596
3057,5039,1,32,9,snag,1,5084
3058,5039,1,32,10,duo,1,4251
3059,5039,1,32,11,moving,7,2108
3060,5039,1,32,12,altruism,1,2042
3061,5039,1,32,13,ice,2,6581
3062,5039,1,32,14,blessing,7,1746
3063,5039,1,32,15,raider,7,2253
3064,5039,1,32,16,session,1,2752
3065,5039,1,32,17,intrinsic,1,3415
3066,5039,1,32,18,dimple,3,3371
3067,5039,1,32,19,infiltration,7,2397
3068,5039,1,32,20,deny,2,2893
3069,5039,1,32,21,landed,7,1753
3070,5039,1,32,22,filling,7,2105
3071,5039,1,32,23,zeal,1,1406
3072,5039,1,32,24,pushy,7,1589
3073,5039,1,32,25,ninny,1,1885
3074,5039,1,32,26,impudence,1,1892
3075,5039,1,32,27,facial,4,2786
3076,5039,1,32,28,disrespectful,7,3912
3077,5039,1,32,30,sweetie,5,3916
3078,5039,1,32,31,continually,7,1706
3079,5039,1,32,32,often,1,4064
3080,5039,1,32,34,crematory,5,5454
3081,5039,1,32,35,padding,7,1591
3082,5039,1,32,36,aware,1,1989
3083,5039,1,32,37,adjoin,5,3823
3084,5039,1,32,38,employ,1,2265
3085,5039,1,32,39,darn,1,1263
3086,5039,1,32,40,rump,2,3819
3087,5039,1,32,41,clack,4,3791
3088,5039,1,32,42,unanimity,5,2825
3089,5039,1,32,44,vamp,1,2013
3090,5039,1,32,45,tempest,5,2478
3091,5039,1,32,46,treat,1,2916
3092,5039,1,32,47,calf,1,2101
3093,5039,1,32,48,euphonic,1,1800
3094,5039,1,32,50,commonplace,7,2998
3095,5039,2,4,51,sucking,7,1984
3096,5039,2,4,52,disappearance,6,3687
3097,5039,2,4,53,so,1,3238
3098,5039,2,4,54,screech,7,5322
3099,5039,2,4,55,weaken,6,1573
3100,5039,2,4,56,unrelenting,6,1423
3101,5039,2,4,57,inhibit,2,2483
3102,5039,2,4,58,skewer,1,2219
3103,5039,2,4,59,cloying,1,1381
3104,5039,2,4,60,inconvenience,5,88
3105,5039,2,4,61,artful,7,2108
3106,5039,2,4,62,topic,1,3223
3107,5039,2,4,63,iodize,1,1816
3108,5039,2,4,64,ready,1,2608
3109,5039,2,4,65,aerial,1,1784
3110,5039,2,4,66,kept,2,2249
3111,5039,2,4,67,economy,2,2558
3112,5039,2,4,68,conceited,2,5342
3113,5039,2,4,71,ability,1,2575
3114,5039,2,4,72,enemy,1,2348
